"success","timeout","failed_images","failed_audio","failed_video","trial_type","trial_index","time_elapsed","internal_node_id","subject_id","condition_num","rt","stimulus","response","question_order","slider_start","practiceTrial","practiceTrialNum","correct","image_path","concept","repetition","map_id","map_num","scale_name","orientation_code","mapping_code","rotation_code","ishihara_plate","correct_response"
"true","false","[]","[]","[]","preload",0,2764,"0.0-0.0","4swuc5lwq7",24,NA,"",NA,"",NA,"",NA,"","","",NA,NA,NA,"","","","",NA,NA
"","","","","","html-button-response",1,12278,"0.0-1.0","4swuc5lwq7",24,9502,"Welcome to our experiment!<p>At the bottom of this screen, you will see a button that says ""Begin Experiment"".<br>Please only click that button when you are ready to complete the 30 minute experiment in one sitting.</p><p> Once you click that button, it will not be possible to restart the experiment.",0.5,"",NA,"",NA,"","","",NA,NA,NA,"","","","",NA,NA
"true","","","","","fullscreen",2,15960,"0.0-2.0","4swuc5lwq7",24,2662,"",NA,"",NA,"",NA,"","","",NA,NA,NA,"","","","",NA,NA
"","","","","","survey-multi-select",3,53793,"0.0-3.0","4swuc5lwq7",24,37820,"",NA,"[0]",NA,"",NA,"","","",NA,NA,NA,"","","","",NA,NA
"","","","","","html-button-response",4,55660,"0.0-4.0","4swuc5lwq7",24,1861,"Welcome! <p> This experiment involves two parts: demographic information, followed by the experimental task.<p> It will take about 30 minutes to complete both parts.",0.5,"",NA,"",NA,"","","",NA,NA,NA,"","","","",NA,NA
"","","","","","survey-text",5,82239,"0.0-5.0","4swuc5lwq7",24,26531,"",NA,"",NA,"",NA,"","","",NA,NA,NA,"","","","",NA,NA
"","","","","","html-slider-response",6,176623,"0.0-6.0","4swuc5lwq7",24,94370,"<div style='text-align:left; font-size:20px; line-height:25px; width: 1000px;'>
                                During this experiment you will be asked to rate how much you associate maps with                    different concepts.<br> Below, you can see some examples of the maps you will be asked to rate. Above the maps
                    is the list of concepts.<br>You will be asked                    to rate how much you associate each map with each concept on a scale from 'not at all' to 'very much' like the
                    one below. <br><br>
                    Now, please look at the list of concepts and maps. For each concept, think about the map you associate 'very
                    much' with the concept.<br>                     When you see that map during the experiment, please rate it near the 'very much' endpoint of the
                    scale.<br>Now, please think about which map you associate 'not at all'                     with each concept. When you see that map during the experiment, please rate it near the 'not at all' endpoint
                    of the scale.<br>
                    Please use the full range of the scale. That is, if a map is somewhat associated with the concept, you would
                    click partway between the middle point and right side of the scale.                    You will be asked to rate each map for a given concept before moving on to the next concept.<br>Press the
                    'Continue' button for instructions on how to use the slider.                    <br>
                </div>

                <div style=""width: 500px; margin: 0 auto;"">
                    <!-- Centered text paragraphs -->
                    <div style=""text-align: center; width: 500px;"">
                        <p style=""font-size:25px; line-height:15px;"">
                            fearful&nbsp;&nbsp;&nbsp;&nbsp;
                            angry&nbsp;&nbsp;&nbsp;&nbsp;
                            disgust&nbsp;&nbsp;&nbsp;&nbsp;
                            happy&nbsp;&nbsp;&nbsp;&nbsp;
                            sad
                        </p>
                        <!-- <p style=""font-size:20px; line-height:15px;"">angry</p>
                        <p style=""font-size:20px;line-height:15px;"">disgust</p>
                        <p style=""font-size:20px;line-height:15px;"">happy</p>
                        <p style=""font-size:20px;line-height:15px;"">sad</p> -->
                    </div>
            

                    <!-- Grid section -->
                   <div style=""display: flex; justify-content: center; padding-top: 15px;"">
                    <div style=""display: grid; grid-template-columns: repeat(10, 55px); grid-gap: 5px; width: auto;"">
                        <img src=""images/map27_PRGn_scaleDef_orientDef_000.png"" alt=""map"" style=""width: 100%;""><img src=""images/map13_YlOrBr_scaleDef_orientMir_180.png"" alt=""map"" style=""width: 100%;""><img src=""images/map23_PuBu_scaleDef_orientMir_000.png"" alt=""map"" style=""width: 100%;""><img src=""images/map10_viridis_scaleRev_orientDef_090.png"" alt=""map"" style=""width: 100%;""><img src=""images/map26_PuBuGn_scaleDef_orientDef_000.png"" alt=""map"" style=""width: 100%;""><img src=""images/map26_PiYG_scaleRev_orientMir_270.png"" alt=""map"" style=""width: 100%;""><img src=""images/map10_inferno_scaleRev_orientMir_090.png"" alt=""map"" style=""width: 100%;""><img src=""images/map15_RdPu_scaleRev_orientMir_270.png"" alt=""map"" style=""width: 100%;""><img src=""images/map02_RdYlGn_scaleDef_orientMir_000.png"" alt=""map"" style=""width: 100%;""><img src=""images/map10_magma_scaleRev_orientMir_270.png"" alt=""map"" style=""width: 100%;""><img src=""images/map07_managua_scaleDef_orientDef_000.png"" alt=""map"" style=""width: 100%;""><img src=""images/map13_Reds_scaleDef_orientMir_000.png"" alt=""map"" style=""width: 100%;""><img src=""images/map02_RdBu_scaleDef_orientDef_000.png"" alt=""map"" style=""width: 100%;""><img src=""images/map13_Oranges_scaleRev_orientDef_270.png"" alt=""map"" style=""width: 100%;""><img src=""images/map02_RdYlBu_scaleDef_orientDef_180.png"" alt=""map"" style=""width: 100%;""><img src=""images/map07_gist_earth_scaleDef_orientMir_000.png"" alt=""map"" style=""width: 100%;""><img src=""images/map26_BuGn_scaleDef_orientDef_180.png"" alt=""map"" style=""width: 100%;""><img src=""images/map12_Blues_scaleRev_orientMir_270.png"" alt=""map"" style=""width: 100%;""><img src=""images/map05_bwr_scaleRev_orientDef_270.png"" alt=""map"" style=""width: 100%;""><img src=""images/map15_YlOrRd_scaleDef_orientDef_000.png"" alt=""map"" style=""width: 100%;""><img src=""images/map13_Greens_scaleDef_orientDef_000.png"" alt=""map"" style=""width: 100%;""><img src=""images/map07_turbo_scaleRev_orientMir_270.png"" alt=""map"" style=""width: 100%;""><img src=""images/map12_Purples_scaleRev_orientMir_090.png"" alt=""map"" style=""width: 100%;""><img src=""images/map12_Greys_scaleRev_orientDef_270.png"" alt=""map"" style=""width: 100%;""><img src=""images/map12_cividis_scaleRev_orientDef_090.png"" alt=""map"" style=""width: 100%;""><img src=""images/map26_YlGn_scaleRev_orientMir_090.png"" alt=""map"" style=""width: 100%;""><img src=""images/map15_PuRd_scaleRev_orientMir_090.png"" alt=""map"" style=""width: 100%;""><img src=""images/map23_YlGnBu_scaleRev_orientMir_270.png"" alt=""map"" style=""width: 100%;""><img src=""images/map05_seismic_scaleRev_orientMir_090.png"" alt=""map"" style=""width: 100%;""><img src=""images/map27_PuOr_scaleRev_orientMir_090.png"" alt=""map"" style=""width: 100%;""><img src=""images/map27_RdGy_scaleRev_orientMir_270.png"" alt=""map"" style=""width: 100%;""><img src=""images/map05_berlin_scaleRev_orientMir_270.png"" alt=""map"" style=""width: 100%;""><img src=""images/map07_vanimo_scaleDef_orientDef_180.png"" alt=""map"" style=""width: 100%;""><img src=""images/map23_BuPu_scaleRev_orientDef_090.png"" alt=""map"" style=""width: 100%;""><img src=""images/map23_GnBu_scaleRev_orientDef_270.png"" alt=""map"" style=""width: 100%;""><img src=""images/map15_OrRd_scaleDef_orientDef_180.png"" alt=""map"" style=""width: 100%;""><img src=""images/map05_coolwarm_scaleRev_orientDef_090.png"" alt=""map"" style=""width: 100%;""><img src=""images/map02_Spectral_scaleRev_orientMir_270.png"" alt=""map"" style=""width: 100%;""><img src=""images/map10_plasma_scaleDef_orientDef_180.png"" alt=""map"" style=""width: 100%;""><img src=""images/map27_BrBG_scaleDef_orientDef_180.png"" alt=""map"" style=""width: 100%;"">
                    </div>
                </div>

                    <!-- Clear floats -->
                    <div style=""clear: both;""></div>
                </div>
                            ",0.7575,"",0,"true",NA,"","","",NA,NA,NA,"","","","",NA,NA
"","","","","","html-button-response",7,181020,"0.0-7.0","4swuc5lwq7",24,4396,"<div style=""width:800px;""><p style=""text-align:left"">To move the slider, click and drag your cursor to the location of the scale where you would like to make your rating and then let go. When you let go of the slider, your response will be recorded and the next trial will begin. <br>
                    We are interested in your initial impressions of each map for the given concept, so please go with your first intuition. <br>
                    Before you begin the experiment, there will be four training trials for you to practice using the scale. <br>
                     When you are ready to start the training trials, please click ""Continue"".</p><br></div>",0.5,"",NA,"",NA,"","","",NA,NA,NA,"","","","",NA,NA
"","","","","","html-slider-response",8,186048,"0.0-8.0-0.0","4swuc5lwq7",24,NA,"<div style=""width:500px;"">
                                    <p style=""font-size:25px;"">Please move the slider all the way to the <br> right endpoint of the scale</p>

                                    </div>
                                </div>",1,"",0,"true",0,"true","","",NA,NA,NA,"","","","",NA,NA
"","","","","","html-button-response",9,189144,"0.0-8.0-1.0","4swuc5lwq7",24,2590,"<p align='center'><b>Good job!</b> Click on 'Continue' to proceed.</p>",0.5,"",NA,"",NA,"","","",NA,NA,NA,"","","","",NA,NA
"","","","","","html-slider-response",10,193040,"0.0-9.0-0.0","4swuc5lwq7",24,NA,"<div style=""width:500px;"">
                                    <p style=""font-size:25px;"">Please move the slider all the way to the <br> left endpoint of the scale</p>

                                    </div>
                                </div>",0,"",0,"true",1,"true","","",NA,NA,NA,"","","","",NA,NA
"","","","","","html-button-response",11,194724,"0.0-9.0-1.0","4swuc5lwq7",24,1178,"<p align='center'><b>Good job!</b> Click on 'Continue' to proceed.</p>",0.5,"",NA,"",NA,"","","",NA,NA,NA,"","","","",NA,NA
"","","","","","html-slider-response",12,205006,"0.0-10.0-0.0","4swuc5lwq7",24,NA,"<div style=""width:500px;"">
                                    <p style=""font-size:25px;"">Please move the slider halfway between the center and right endpoint of the scale</p>

                                    </div>
                                </div>",0.7825,"",0,"true",2,"false","","",NA,NA,NA,"","","","",NA,NA
"","","","","","html-button-response",13,209832,"0.0-10.0-1.0","4swuc5lwq7",24,4316,"<p align='center'><b>Not quite!</b> The slider was not placed near the instructed located. Click on 'Continue' to try again. </p>",0.5,"",NA,"",NA,"","","",NA,NA,NA,"","","","",NA,NA
"","","","","","html-slider-response",14,217400,"0.0-10.1-0.1","4swuc5lwq7",24,NA,"<div style=""width:500px;"">
                                    <p style=""font-size:25px;"">Please move the slider halfway between the center and right endpoint of the scale</p>

                                    </div>
                                </div>",0.765,"",0,"true",2,"true","","",NA,NA,NA,"","","","",NA,NA
"","","","","","html-button-response",15,219131,"0.0-10.1-1.1","4swuc5lwq7",24,1225,"<p align='center'><b>Good job!</b> Click on 'Continue' to proceed.</p>",0.5,"",NA,"",NA,"","","",NA,NA,NA,"","","","",NA,NA
"","","","","","html-slider-response",16,224197,"0.0-11.0-0.0","4swuc5lwq7",24,NA,"<div style=""width:500px;"">
                                    <p style=""font-size:25px;"">Please move the slider halfway between the center and left endpoint of the scale</p>

                                    </div>
                                </div>",0.2375,"",0,"true",3,"true","","",NA,NA,NA,"","","","",NA,NA
"","","","","","html-button-response",17,225857,"0.0-11.0-1.0","4swuc5lwq7",24,1147,"<p align='center'><b>Good job!</b> Click on 'Continue' to proceed.</p>",0.5,"",NA,"",NA,"","","",NA,NA,NA,"","","","",NA,NA
"","","","","","html-button-response",18,227837,"0.0-12.0","4swuc5lwq7",24,1978,"<p>Great job! You've completed the practice trials. Now you will begin the main task.</p>",0.5,"",NA,"",NA,"","","",NA,NA,NA,"","","","",NA,NA
"","","","","","html-button-response",19,232198,"0.0-13.0","4swuc5lwq7",24,4360,"<p>In this block of trials, you will be asked to rate how much you associate each map with:</p > <p style = 'font-size:150%; font-weight: bold'>fearful</p><br></br>",0.5,"",NA,"",NA,"","","",NA,NA,NA,"","","","",NA,NA
"","","","","","html-slider-response",20,236544,"0.0-14.0","4swuc5lwq7",24,NA,"<div style=""width:500px;"">
                            <p style=""font-size:50px; font-weight:bold;""
                            >fearful</p>
                            <div style=""width:240px; margin: auto;"">
                                <img src=""images/map02_RdYlGn_scaleRev_orientMir_090.png"" style= ""width:200px""alt=""img"">
                            </div>
                        </div>",0.565,"",0,"",NA,"","images/map02_RdYlGn_scaleRev_orientMir_090.png","fearful",1,2,2,"RdYlGn","orientMir","scaleRev","090",NA,NA
"","","","","","html-slider-response",21,242079,"0.0-15.0","4swuc5lwq7",24,NA,"<div style=""width:500px;"">
                            <p style=""font-size:50px; font-weight:bold;""
                            >fearful</p>
                            <div style=""width:240px; margin: auto;"">
                                <img src=""images/map02_Spectral_scaleRev_orientMir_270.png"" style= ""width:200px""alt=""img"">
                            </div>
                        </div>",0.5525,"",0,"",NA,"","images/map02_Spectral_scaleRev_orientMir_270.png","fearful",1,2,2,"Spectral","orientMir","scaleRev","270",NA,NA
"","","","","","html-slider-response",22,248524,"0.0-16.0","4swuc5lwq7",24,NA,"<div style=""width:500px;"">
                            <p style=""font-size:50px; font-weight:bold;""
                            >fearful</p>
                            <div style=""width:240px; margin: auto;"">
                                <img src=""images/map27_RdGy_scaleRev_orientMir_270.png"" style= ""width:200px""alt=""img"">
                            </div>
                        </div>",0.935,"",0,"",NA,"","images/map27_RdGy_scaleRev_orientMir_270.png","fearful",1,27,27,"RdGy","orientMir","scaleRev","270",NA,NA
"","","","","","html-slider-response",23,252175,"0.0-17.0","4swuc5lwq7",24,NA,"<div style=""width:500px;"">
                            <p style=""font-size:50px; font-weight:bold;""
                            >fearful</p>
                            <div style=""width:240px; margin: auto;"">
                                <img src=""images/map07_vanimo_scaleRev_orientDef_270.png"" style= ""width:200px""alt=""img"">
                            </div>
                        </div>",0.445,"",0,"",NA,"","images/map07_vanimo_scaleRev_orientDef_270.png","fearful",1,7,7,"vanimo","orientDef","scaleRev","270",NA,NA
"","","","","","html-slider-response",24,255465,"0.0-18.0","4swuc5lwq7",24,NA,"<div style=""width:500px;"">
                            <p style=""font-size:50px; font-weight:bold;""
                            >fearful</p>
                            <div style=""width:240px; margin: auto;"">
                                <img src=""images/map23_BuPu_scaleDef_orientDef_000.png"" style= ""width:200px""alt=""img"">
                            </div>
                        </div>",0.605,"",0,"",NA,"","images/map23_BuPu_scaleDef_orientDef_000.png","fearful",1,23,23,"BuPu","orientDef","scaleDef","000",NA,NA
"","","","","","html-slider-response",25,257687,"0.0-19.0","4swuc5lwq7",24,NA,"<div style=""width:500px;"">
                            <p style=""font-size:50px; font-weight:bold;""
                            >fearful</p>
                            <div style=""width:240px; margin: auto;"">
                                <img src=""images/map10_viridis_scaleDef_orientDef_000.png"" style= ""width:200px""alt=""img"">
                            </div>
                        </div>",0.45,"",0,"",NA,"","images/map10_viridis_scaleDef_orientDef_000.png","fearful",1,10,10,"viridis","orientDef","scaleDef","000",NA,NA
"","","","","","html-slider-response",26,259815,"0.0-20.0","4swuc5lwq7",24,NA,"<div style=""width:500px;"">
                            <p style=""font-size:50px; font-weight:bold;""
                            >fearful</p>
                            <div style=""width:240px; margin: auto;"">
                                <img src=""images/map07_gist_earth_scaleRev_orientMir_090.png"" style= ""width:200px""alt=""img"">
                            </div>
                        </div>",0.425,"",0,"",NA,"","images/map07_gist_earth_scaleRev_orientMir_090.png","fearful",1,7,7,"gist","scaleRev","earth","orientMir",NA,NA
"","","","","","html-slider-response",27,261820,"0.0-21.0","4swuc5lwq7",24,NA,"<div style=""width:500px;"">
                            <p style=""font-size:50px; font-weight:bold;""
                            >fearful</p>
                            <div style=""width:240px; margin: auto;"">
                                <img src=""images/map10_viridis_scaleRev_orientDef_090.png"" style= ""width:200px""alt=""img"">
                            </div>
                        </div>",0.4325,"",0,"",NA,"","images/map10_viridis_scaleRev_orientDef_090.png","fearful",1,10,10,"viridis","orientDef","scaleRev","090",NA,NA
"","","","","","html-slider-response",28,264245,"0.0-22.0","4swuc5lwq7",24,NA,"<div style=""width:500px;"">
                            <p style=""font-size:50px; font-weight:bold;""
                            >fearful</p>
                            <div style=""width:240px; margin: auto;"">
                                <img src=""images/map10_magma_scaleDef_orientMir_180.png"" style= ""width:200px""alt=""img"">
                            </div>
                        </div>",0.87,"",0,"",NA,"","images/map10_magma_scaleDef_orientMir_180.png","fearful",1,10,10,"magma","orientMir","scaleDef","180",NA,NA
"","","","","","html-slider-response",29,266642,"0.0-23.0","4swuc5lwq7",24,NA,"<div style=""width:500px;"">
                            <p style=""font-size:50px; font-weight:bold;""
                            >fearful</p>
                            <div style=""width:240px; margin: auto;"">
                                <img src=""images/map23_PuBu_scaleRev_orientMir_090.png"" style= ""width:200px""alt=""img"">
                            </div>
                        </div>",0.305,"",0,"",NA,"","images/map23_PuBu_scaleRev_orientMir_090.png","fearful",1,23,23,"PuBu","orientMir","scaleRev","090",NA,NA
"","","","","","html-slider-response",30,269082,"0.0-24.0","4swuc5lwq7",24,NA,"<div style=""width:500px;"">
                            <p style=""font-size:50px; font-weight:bold;""
                            >fearful</p>
                            <div style=""width:240px; margin: auto;"">
                                <img src=""images/map05_berlin_scaleRev_orientMir_270.png"" style= ""width:200px""alt=""img"">
                            </div>
                        </div>",0.785,"",0,"",NA,"","images/map05_berlin_scaleRev_orientMir_270.png","fearful",1,5,5,"berlin","orientMir","scaleRev","270",NA,NA
"","","","","","html-slider-response",31,271662,"0.0-25.0","4swuc5lwq7",24,NA,"<div style=""width:500px;"">
                            <p style=""font-size:50px; font-weight:bold;""
                            >fearful</p>
                            <div style=""width:240px; margin: auto;"">
                                <img src=""images/map05_bwr_scaleRev_orientDef_270.png"" style= ""width:200px""alt=""img"">
                            </div>
                        </div>",0.39,"",0,"",NA,"","images/map05_bwr_scaleRev_orientDef_270.png","fearful",1,5,5,"bwr","orientDef","scaleRev","270",NA,NA
"","","","","","html-slider-response",32,274279,"0.0-26.0","4swuc5lwq7",24,NA,"<div style=""width:500px;"">
                            <p style=""font-size:50px; font-weight:bold;""
                            >fearful</p>
                            <div style=""width:240px; margin: auto;"">
                                <img src=""images/map13_Reds_scaleDef_orientMir_000.png"" style= ""width:200px""alt=""img"">
                            </div>
                        </div>",0.7775,"",0,"",NA,"","images/map13_Reds_scaleDef_orientMir_000.png","fearful",1,13,13,"Reds","orientMir","scaleDef","000",NA,NA
"","","","","","html-slider-response",33,277126,"0.0-27.0","4swuc5lwq7",24,NA,"<div style=""width:500px;"">
                            <p style=""font-size:50px; font-weight:bold;""
                            >fearful</p>
                            <div style=""width:240px; margin: auto;"">
                                <img src=""images/map12_Blues_scaleRev_orientMir_270.png"" style= ""width:200px""alt=""img"">
                            </div>
                        </div>",0.38,"",0,"",NA,"","images/map12_Blues_scaleRev_orientMir_270.png","fearful",1,12,12,"Blues","orientMir","scaleRev","270",NA,NA
"","","","","","html-slider-response",34,282057,"0.0-28.0","4swuc5lwq7",24,NA,"<div style=""width:500px;"">
                            <p style=""font-size:50px; font-weight:bold;""
                            >fearful</p>
                            <div style=""width:240px; margin: auto;"">
                                <img src=""images/map26_PiYG_scaleDef_orientMir_180.png"" style= ""width:200px""alt=""img"">
                            </div>
                        </div>",0.395,"",0,"",NA,"","images/map26_PiYG_scaleDef_orientMir_180.png","fearful",1,26,26,"PiYG","orientMir","scaleDef","180",NA,NA
"","","","","","html-slider-response",35,286653,"0.0-29.0","4swuc5lwq7",24,NA,"<div style=""width:500px;"">
                            <p style=""font-size:50px; font-weight:bold;""
                            >fearful</p>
                            <div style=""width:240px; margin: auto;"">
                                <img src=""images/map15_OrRd_scaleRev_orientDef_270.png"" style= ""width:200px""alt=""img"">
                            </div>
                        </div>",0.3075,"",0,"",NA,"","images/map15_OrRd_scaleRev_orientDef_270.png","fearful",1,15,15,"OrRd","orientDef","scaleRev","270",NA,NA
"","","","","","html-slider-response",36,289259,"0.0-30.0","4swuc5lwq7",24,NA,"<div style=""width:500px;"">
                            <p style=""font-size:50px; font-weight:bold;""
                            >fearful</p>
                            <div style=""width:240px; margin: auto;"">
                                <img src=""images/map07_vanimo_scaleDef_orientDef_180.png"" style= ""width:200px""alt=""img"">
                            </div>
                        </div>",0.31,"",0,"",NA,"","images/map07_vanimo_scaleDef_orientDef_180.png","fearful",1,7,7,"vanimo","orientDef","scaleDef","180",NA,NA
"","","","","","html-slider-response",37,291356,"0.0-31.0","4swuc5lwq7",24,NA,"<div style=""width:500px;"">
                            <p style=""font-size:50px; font-weight:bold;""
                            >fearful</p>
                            <div style=""width:240px; margin: auto;"">
                                <img src=""images/map02_RdBu_scaleRev_orientDef_090.png"" style= ""width:200px""alt=""img"">
                            </div>
                        </div>",0.3225,"",0,"",NA,"","images/map02_RdBu_scaleRev_orientDef_090.png","fearful",1,2,2,"RdBu","orientDef","scaleRev","090",NA,NA
"","","","","","html-slider-response",38,294240,"0.0-32.0","4swuc5lwq7",24,NA,"<div style=""width:500px;"">
                            <p style=""font-size:50px; font-weight:bold;""
                            >fearful</p>
                            <div style=""width:240px; margin: auto;"">
                                <img src=""images/map13_Greens_scaleRev_orientDef_090.png"" style= ""width:200px""alt=""img"">
                            </div>
                        </div>",0.295,"",0,"",NA,"","images/map13_Greens_scaleRev_orientDef_090.png","fearful",1,13,13,"Greens","orientDef","scaleRev","090",NA,NA
"","","","","","html-slider-response",39,296559,"0.0-33.0","4swuc5lwq7",24,NA,"<div style=""width:500px;"">
                            <p style=""font-size:50px; font-weight:bold;""
                            >fearful</p>
                            <div style=""width:240px; margin: auto;"">
                                <img src=""images/map27_RdGy_scaleDef_orientMir_180.png"" style= ""width:200px""alt=""img"">
                            </div>
                        </div>",1,"",0,"",NA,"","images/map27_RdGy_scaleDef_orientMir_180.png","fearful",1,27,27,"RdGy","orientMir","scaleDef","180",NA,NA
"","","","","","html-slider-response",40,299291,"0.0-34.0","4swuc5lwq7",24,NA,"<div style=""width:500px;"">
                            <p style=""font-size:50px; font-weight:bold;""
                            >fearful</p>
                            <div style=""width:240px; margin: auto;"">
                                <img src=""images/map13_YlOrBr_scaleRev_orientMir_270.png"" style= ""width:200px""alt=""img"">
                            </div>
                        </div>",0.37,"",0,"",NA,"","images/map13_YlOrBr_scaleRev_orientMir_270.png","fearful",1,13,13,"YlOrBr","orientMir","scaleRev","270",NA,NA
"","","","","","html-slider-response",41,303362,"0.0-35.0","4swuc5lwq7",24,NA,"<div style=""width:500px;"">
                            <p style=""font-size:50px; font-weight:bold;""
                            >fearful</p>
                            <div style=""width:240px; margin: auto;"">
                                <img src=""images/map26_PiYG_scaleRev_orientMir_270.png"" style= ""width:200px""alt=""img"">
                            </div>
                        </div>",0.32,"",0,"",NA,"","images/map26_PiYG_scaleRev_orientMir_270.png","fearful",1,26,26,"PiYG","orientMir","scaleRev","270",NA,NA
"","","","","","html-slider-response",42,306359,"0.0-36.0","4swuc5lwq7",24,NA,"<div style=""width:500px;"">
                            <p style=""font-size:50px; font-weight:bold;""
                            >fearful</p>
                            <div style=""width:240px; margin: auto;"">
                                <img src=""images/map15_PuRd_scaleRev_orientMir_090.png"" style= ""width:200px""alt=""img"">
                            </div>
                        </div>",0.245,"",0,"",NA,"","images/map15_PuRd_scaleRev_orientMir_090.png","fearful",1,15,15,"PuRd","orientMir","scaleRev","090",NA,NA
"","","","","","html-slider-response",43,309111,"0.0-37.0","4swuc5lwq7",24,NA,"<div style=""width:500px;"">
                            <p style=""font-size:50px; font-weight:bold;""
                            >fearful</p>
                            <div style=""width:240px; margin: auto;"">
                                <img src=""images/map27_BrBG_scaleDef_orientDef_180.png"" style= ""width:200px""alt=""img"">
                            </div>
                        </div>",0.2575,"",0,"",NA,"","images/map27_BrBG_scaleDef_orientDef_180.png","fearful",1,27,27,"BrBG","orientDef","scaleDef","180",NA,NA
"","","","","","html-slider-response",44,311419,"0.0-38.0","4swuc5lwq7",24,NA,"<div style=""width:500px;"">
                            <p style=""font-size:50px; font-weight:bold;""
                            >fearful</p>
                            <div style=""width:240px; margin: auto;"">
                                <img src=""images/map27_PuOr_scaleDef_orientMir_000.png"" style= ""width:200px""alt=""img"">
                            </div>
                        </div>",0.24,"",0,"",NA,"","images/map27_PuOr_scaleDef_orientMir_000.png","fearful",1,27,27,"PuOr","orientMir","scaleDef","000",NA,NA
"","","","","","html-slider-response",45,315799,"0.0-39.0","4swuc5lwq7",24,NA,"<div style=""width:500px;"">
                            <p style=""font-size:50px; font-weight:bold;""
                            >fearful</p>
                            <div style=""width:240px; margin: auto;"">
                                <img src=""images/map12_Greys_scaleDef_orientDef_180.png"" style= ""width:200px""alt=""img"">
                            </div>
                        </div>",0.885,"",0,"",NA,"","images/map12_Greys_scaleDef_orientDef_180.png","fearful",1,12,12,"Greys","orientDef","scaleDef","180",NA,NA
"","","","","","html-slider-response",46,318490,"0.0-40.0","4swuc5lwq7",24,NA,"<div style=""width:500px;"">
                            <p style=""font-size:50px; font-weight:bold;""
                            >fearful</p>
                            <div style=""width:240px; margin: auto;"">
                                <img src=""images/map26_BuGn_scaleRev_orientDef_270.png"" style= ""width:200px""alt=""img"">
                            </div>
                        </div>",0.325,"",0,"",NA,"","images/map26_BuGn_scaleRev_orientDef_270.png","fearful",1,26,26,"BuGn","orientDef","scaleRev","270",NA,NA
"","","","","","html-slider-response",47,320666,"0.0-41.0","4swuc5lwq7",24,NA,"<div style=""width:500px;"">
                            <p style=""font-size:50px; font-weight:bold;""
                            >fearful</p>
                            <div style=""width:240px; margin: auto;"">
                                <img src=""images/map23_YlGnBu_scaleRev_orientMir_270.png"" style= ""width:200px""alt=""img"">
                            </div>
                        </div>",0.295,"",0,"",NA,"","images/map23_YlGnBu_scaleRev_orientMir_270.png","fearful",1,23,23,"YlGnBu","orientMir","scaleRev","270",NA,NA
"","","","","","html-slider-response",48,323568,"0.0-42.0","4swuc5lwq7",24,NA,"<div style=""width:500px;"">
                            <p style=""font-size:50px; font-weight:bold;""
                            >fearful</p>
                            <div style=""width:240px; margin: auto;"">
                                <img src=""images/map13_Oranges_scaleDef_orientDef_180.png"" style= ""width:200px""alt=""img"">
                            </div>
                        </div>",0.2775,"",0,"",NA,"","images/map13_Oranges_scaleDef_orientDef_180.png","fearful",1,13,13,"Oranges","orientDef","scaleDef","180",NA,NA
"","","","","","html-slider-response",49,325970,"0.0-43.0","4swuc5lwq7",24,NA,"<div style=""width:500px;"">
                            <p style=""font-size:50px; font-weight:bold;""
                            >fearful</p>
                            <div style=""width:240px; margin: auto;"">
                                <img src=""images/map10_inferno_scaleDef_orientMir_000.png"" style= ""width:200px""alt=""img"">
                            </div>
                        </div>",0.6925,"",0,"",NA,"","images/map10_inferno_scaleDef_orientMir_000.png","fearful",1,10,10,"inferno","orientMir","scaleDef","000",NA,NA
"","","","","","html-slider-response",50,329501,"0.0-44.0","4swuc5lwq7",24,NA,"<div style=""width:500px;"">
                            <p style=""font-size:50px; font-weight:bold;""
                            >fearful</p>
                            <div style=""width:240px; margin: auto;"">
                                <img src=""images/map15_YlOrRd_scaleDef_orientDef_000.png"" style= ""width:200px""alt=""img"">
                            </div>
                        </div>",0.475,"",0,"",NA,"","images/map15_YlOrRd_scaleDef_orientDef_000.png","fearful",1,15,15,"YlOrRd","orientDef","scaleDef","000",NA,NA
"","","","","","html-slider-response",51,332610,"0.0-45.0","4swuc5lwq7",24,NA,"<div style=""width:500px;"">
                            <p style=""font-size:50px; font-weight:bold;""
                            >fearful</p>
                            <div style=""width:240px; margin: auto;"">
                                <img src=""images/map27_PRGn_scaleDef_orientDef_000.png"" style= ""width:200px""alt=""img"">
                            </div>
                        </div>",0.295,"",0,"",NA,"","images/map27_PRGn_scaleDef_orientDef_000.png","fearful",1,27,27,"PRGn","orientDef","scaleDef","000",NA,NA
"","","","","","html-slider-response",52,335966,"0.0-46.0","4swuc5lwq7",24,NA,"<div style=""width:500px;"">
                            <p style=""font-size:50px; font-weight:bold;""
                            >fearful</p>
                            <div style=""width:240px; margin: auto;"">
                                <img src=""images/map26_PuBuGn_scaleDef_orientDef_000.png"" style= ""width:200px""alt=""img"">
                            </div>
                        </div>",0.31,"",0,"",NA,"","images/map26_PuBuGn_scaleDef_orientDef_000.png","fearful",1,26,26,"PuBuGn","orientDef","scaleDef","000",NA,NA
"","","","","","html-slider-response",53,338518,"0.0-47.0","4swuc5lwq7",24,NA,"<div style=""width:500px;"">
                            <p style=""font-size:50px; font-weight:bold;""
                            >fearful</p>
                            <div style=""width:240px; margin: auto;"">
                                <img src=""images/map13_YlOrBr_scaleDef_orientMir_180.png"" style= ""width:200px""alt=""img"">
                            </div>
                        </div>",0.2925,"",0,"",NA,"","images/map13_YlOrBr_scaleDef_orientMir_180.png","fearful",1,13,13,"YlOrBr","orientMir","scaleDef","180",NA,NA
"","","","","","html-slider-response",54,344510,"0.0-48.0","4swuc5lwq7",24,NA,"<div style=""width:500px;"">
                            <p style=""font-size:50px; font-weight:bold;""
                            >fearful</p>
                            <div style=""width:240px; margin: auto;"">
                                <img src=""images/map15_RdPu_scaleDef_orientMir_180.png"" style= ""width:200px""alt=""img"">
                            </div>
                        </div>",0.2125,"",0,"",NA,"","images/map15_RdPu_scaleDef_orientMir_180.png","fearful",1,15,15,"RdPu","orientMir","scaleDef","180",NA,NA
"","","","","","html-slider-response",55,348210,"0.0-49.0","4swuc5lwq7",24,NA,"<div style=""width:500px;"">
                            <p style=""font-size:50px; font-weight:bold;""
                            >fearful</p>
                            <div style=""width:240px; margin: auto;"">
                                <img src=""images/map07_gist_earth_scaleDef_orientMir_000.png"" style= ""width:200px""alt=""img"">
                            </div>
                        </div>",0.2275,"",0,"",NA,"","images/map07_gist_earth_scaleDef_orientMir_000.png","fearful",1,7,7,"gist","scaleDef","earth","orientMir",NA,NA
"","","","","","html-slider-response",56,353556,"0.0-50.0","4swuc5lwq7",24,NA,"<div style=""width:500px;"">
                            <p style=""font-size:50px; font-weight:bold;""
                            >fearful</p>
                            <div style=""width:240px; margin: auto;"">
                                <img src=""images/map13_Oranges_scaleRev_orientDef_270.png"" style= ""width:200px""alt=""img"">
                            </div>
                        </div>",0.29,"",0,"",NA,"","images/map13_Oranges_scaleRev_orientDef_270.png","fearful",1,13,13,"Oranges","orientDef","scaleRev","270",NA,NA
"","","","","","html-slider-response",57,357537,"0.0-51.0","4swuc5lwq7",24,NA,"<div style=""width:500px;"">
                            <p style=""font-size:50px; font-weight:bold;""
                            >fearful</p>
                            <div style=""width:240px; margin: auto;"">
                                <img src=""images/map02_Spectral_scaleDef_orientMir_180.png"" style= ""width:200px""alt=""img"">
                            </div>
                        </div>",0.535,"",0,"",NA,"","images/map02_Spectral_scaleDef_orientMir_180.png","fearful",1,2,2,"Spectral","orientMir","scaleDef","180",NA,NA
"","","","","","html-slider-response",58,362201,"0.0-52.0","4swuc5lwq7",24,NA,"<div style=""width:500px;"">
                            <p style=""font-size:50px; font-weight:bold;""
                            >fearful</p>
                            <div style=""width:240px; margin: auto;"">
                                <img src=""images/map15_YlOrRd_scaleRev_orientDef_090.png"" style= ""width:200px""alt=""img"">
                            </div>
                        </div>",0.275,"",0,"",NA,"","images/map15_YlOrRd_scaleRev_orientDef_090.png","fearful",1,15,15,"YlOrRd","orientDef","scaleRev","090",NA,NA
"","","","","","html-slider-response",59,366096,"0.0-53.0","4swuc5lwq7",24,NA,"<div style=""width:500px;"">
                            <p style=""font-size:50px; font-weight:bold;""
                            >fearful</p>
                            <div style=""width:240px; margin: auto;"">
                                <img src=""images/map10_inferno_scaleRev_orientMir_090.png"" style= ""width:200px""alt=""img"">
                            </div>
                        </div>",0.9575,"",0,"",NA,"","images/map10_inferno_scaleRev_orientMir_090.png","fearful",1,10,10,"inferno","orientMir","scaleRev","090",NA,NA
"","","","","","html-button-response",60,589469,"0.0-54.0","4swuc5lwq7",24,106025,"<p>You are doing great!<br></br> You are halway done with the current block. When you are ready to continue, click the 'Continue' button.</p>",0.5,"",NA,"",NA,"","","",NA,NA,NA,"","","","",NA,NA
"","","","","","html-slider-response",61,592549,"0.0-55.0","4swuc5lwq7",24,NA,"<div style=""width:500px;"">
                            <p style=""font-size:50px; font-weight:bold;""
                            >fearful</p>
                            <div style=""width:240px; margin: auto;"">
                                <img src=""images/map07_managua_scaleDef_orientDef_000.png"" style= ""width:200px""alt=""img"">
                            </div>
                        </div>",0.74,"",0,"",NA,"","images/map07_managua_scaleDef_orientDef_000.png","fearful",1,7,7,"managua","orientDef","scaleDef","000",NA,NA
"","","","","","html-slider-response",62,595277,"0.0-56.0","4swuc5lwq7",24,NA,"<div style=""width:500px;"">
                            <p style=""font-size:50px; font-weight:bold;""
                            >fearful</p>
                            <div style=""width:240px; margin: auto;"">
                                <img src=""images/map12_Purples_scaleRev_orientMir_090.png"" style= ""width:200px""alt=""img"">
                            </div>
                        </div>",0.2675,"",0,"",NA,"","images/map12_Purples_scaleRev_orientMir_090.png","fearful",1,12,12,"Purples","orientMir","scaleRev","090",NA,NA
"","","","","","html-slider-response",63,597547,"0.0-57.0","4swuc5lwq7",24,NA,"<div style=""width:500px;"">
                            <p style=""font-size:50px; font-weight:bold;""
                            >fearful</p>
                            <div style=""width:240px; margin: auto;"">
                                <img src=""images/map12_Greys_scaleRev_orientDef_270.png"" style= ""width:200px""alt=""img"">
                            </div>
                        </div>",0.87,"",0,"",NA,"","images/map12_Greys_scaleRev_orientDef_270.png","fearful",1,12,12,"Greys","orientDef","scaleRev","270",NA,NA
"","","","","","html-slider-response",64,600413,"0.0-58.0","4swuc5lwq7",24,NA,"<div style=""width:500px;"">
                            <p style=""font-size:50px; font-weight:bold;""
                            >fearful</p>
                            <div style=""width:240px; margin: auto;"">
                                <img src=""images/map23_GnBu_scaleRev_orientDef_270.png"" style= ""width:200px""alt=""img"">
                            </div>
                        </div>",0.0975,"",0,"",NA,"","images/map23_GnBu_scaleRev_orientDef_270.png","fearful",1,23,23,"GnBu","orientDef","scaleRev","270",NA,NA
"","","","","","html-slider-response",65,602475,"0.0-59.0","4swuc5lwq7",24,NA,"<div style=""width:500px;"">
                            <p style=""font-size:50px; font-weight:bold;""
                            >fearful</p>
                            <div style=""width:240px; margin: auto;"">
                                <img src=""images/map05_seismic_scaleRev_orientMir_090.png"" style= ""width:200px""alt=""img"">
                            </div>
                        </div>",0.6275,"",0,"",NA,"","images/map05_seismic_scaleRev_orientMir_090.png","fearful",1,5,5,"seismic","orientMir","scaleRev","090",NA,NA
"","","","","","html-slider-response",66,605000,"0.0-60.0","4swuc5lwq7",24,NA,"<div style=""width:500px;"">
                            <p style=""font-size:50px; font-weight:bold;""
                            >fearful</p>
                            <div style=""width:240px; margin: auto;"">
                                <img src=""images/map12_cividis_scaleDef_orientDef_000.png"" style= ""width:200px""alt=""img"">
                            </div>
                        </div>",0.555,"",0,"",NA,"","images/map12_cividis_scaleDef_orientDef_000.png","fearful",1,12,12,"cividis","orientDef","scaleDef","000",NA,NA
"","","","","","html-slider-response",67,608273,"0.0-61.0","4swuc5lwq7",24,NA,"<div style=""width:500px;"">
                            <p style=""font-size:50px; font-weight:bold;""
                            >fearful</p>
                            <div style=""width:240px; margin: auto;"">
                                <img src=""images/map07_turbo_scaleRev_orientMir_270.png"" style= ""width:200px""alt=""img"">
                            </div>
                        </div>",0.0775,"",0,"",NA,"","images/map07_turbo_scaleRev_orientMir_270.png","fearful",1,7,7,"turbo","orientMir","scaleRev","270",NA,NA
"","","","","","html-slider-response",68,611120,"0.0-62.0","4swuc5lwq7",24,NA,"<div style=""width:500px;"">
                            <p style=""font-size:50px; font-weight:bold;""
                            >fearful</p>
                            <div style=""width:240px; margin: auto;"">
                                <img src=""images/map23_YlGnBu_scaleDef_orientMir_180.png"" style= ""width:200px""alt=""img"">
                            </div>
                        </div>",0.445,"",0,"",NA,"","images/map23_YlGnBu_scaleDef_orientMir_180.png","fearful",1,23,23,"YlGnBu","orientMir","scaleDef","180",NA,NA
"","","","","","html-slider-response",69,616286,"0.0-63.0","4swuc5lwq7",24,NA,"<div style=""width:500px;"">
                            <p style=""font-size:50px; font-weight:bold;""
                            >fearful</p>
                            <div style=""width:240px; margin: auto;"">
                                <img src=""images/map27_PuOr_scaleRev_orientMir_090.png"" style= ""width:200px""alt=""img"">
                            </div>
                        </div>",0.4225,"",0,"",NA,"","images/map27_PuOr_scaleRev_orientMir_090.png","fearful",1,27,27,"PuOr","orientMir","scaleRev","090",NA,NA
"","","","","","html-slider-response",70,618382,"0.0-64.0","4swuc5lwq7",24,NA,"<div style=""width:500px;"">
                            <p style=""font-size:50px; font-weight:bold;""
                            >fearful</p>
                            <div style=""width:240px; margin: auto;"">
                                <img src=""images/map10_plasma_scaleDef_orientDef_180.png"" style= ""width:200px""alt=""img"">
                            </div>
                        </div>",0.725,"",0,"",NA,"","images/map10_plasma_scaleDef_orientDef_180.png","fearful",1,10,10,"plasma","orientDef","scaleDef","180",NA,NA
"","","","","","html-slider-response",71,621107,"0.0-65.0","4swuc5lwq7",24,NA,"<div style=""width:500px;"">
                            <p style=""font-size:50px; font-weight:bold;""
                            >fearful</p>
                            <div style=""width:240px; margin: auto;"">
                                <img src=""images/map26_PuBuGn_scaleRev_orientDef_090.png"" style= ""width:200px""alt=""img"">
                            </div>
                        </div>",0.5275,"",0,"",NA,"","images/map26_PuBuGn_scaleRev_orientDef_090.png","fearful",1,26,26,"PuBuGn","orientDef","scaleRev","090",NA,NA
"","","","","","html-slider-response",72,623421,"0.0-66.0","4swuc5lwq7",24,NA,"<div style=""width:500px;"">
                            <p style=""font-size:50px; font-weight:bold;""
                            >fearful</p>
                            <div style=""width:240px; margin: auto;"">
                                <img src=""images/map23_BuPu_scaleRev_orientDef_090.png"" style= ""width:200px""alt=""img"">
                            </div>
                        </div>",0.635,"",0,"",NA,"","images/map23_BuPu_scaleRev_orientDef_090.png","fearful",1,23,23,"BuPu","orientDef","scaleRev","090",NA,NA
"","","","","","html-slider-response",73,625810,"0.0-67.0","4swuc5lwq7",24,NA,"<div style=""width:500px;"">
                            <p style=""font-size:50px; font-weight:bold;""
                            >fearful</p>
                            <div style=""width:240px; margin: auto;"">
                                <img src=""images/map05_coolwarm_scaleRev_orientDef_090.png"" style= ""width:200px""alt=""img"">
                            </div>
                        </div>",0.315,"",0,"",NA,"","images/map05_coolwarm_scaleRev_orientDef_090.png","fearful",1,5,5,"coolwarm","orientDef","scaleRev","090",NA,NA
"","","","","","html-slider-response",74,628050,"0.0-68.0","4swuc5lwq7",24,NA,"<div style=""width:500px;"">
                            <p style=""font-size:50px; font-weight:bold;""
                            >fearful</p>
                            <div style=""width:240px; margin: auto;"">
                                <img src=""images/map05_seismic_scaleDef_orientMir_000.png"" style= ""width:200px""alt=""img"">
                            </div>
                        </div>",0.1675,"",0,"",NA,"","images/map05_seismic_scaleDef_orientMir_000.png","fearful",1,5,5,"seismic","orientMir","scaleDef","000",NA,NA
"","","","","","html-slider-response",75,630240,"0.0-69.0","4swuc5lwq7",24,NA,"<div style=""width:500px;"">
                            <p style=""font-size:50px; font-weight:bold;""
                            >fearful</p>
                            <div style=""width:240px; margin: auto;"">
                                <img src=""images/map27_BrBG_scaleRev_orientDef_270.png"" style= ""width:200px""alt=""img"">
                            </div>
                        </div>",0.155,"",0,"",NA,"","images/map27_BrBG_scaleRev_orientDef_270.png","fearful",1,27,27,"BrBG","orientDef","scaleRev","270",NA,NA
"","","","","","html-slider-response",76,632130,"0.0-70.0","4swuc5lwq7",24,NA,"<div style=""width:500px;"">
                            <p style=""font-size:50px; font-weight:bold;""
                            >fearful</p>
                            <div style=""width:240px; margin: auto;"">
                                <img src=""images/map13_Reds_scaleRev_orientMir_090.png"" style= ""width:200px""alt=""img"">
                            </div>
                        </div>",0.6,"",0,"",NA,"","images/map13_Reds_scaleRev_orientMir_090.png","fearful",1,13,13,"Reds","orientMir","scaleRev","090",NA,NA
"","","","","","html-slider-response",77,634166,"0.0-71.0","4swuc5lwq7",24,NA,"<div style=""width:500px;"">
                            <p style=""font-size:50px; font-weight:bold;""
                            >fearful</p>
                            <div style=""width:240px; margin: auto;"">
                                <img src=""images/map07_managua_scaleRev_orientDef_090.png"" style= ""width:200px""alt=""img"">
                            </div>
                        </div>",0.625,"",0,"",NA,"","images/map07_managua_scaleRev_orientDef_090.png","fearful",1,7,7,"managua","orientDef","scaleRev","090",NA,NA
"","","","","","html-slider-response",78,636272,"0.0-72.0","4swuc5lwq7",24,NA,"<div style=""width:500px;"">
                            <p style=""font-size:50px; font-weight:bold;""
                            >fearful</p>
                            <div style=""width:240px; margin: auto;"">
                                <img src=""images/map02_RdYlBu_scaleRev_orientDef_270.png"" style= ""width:200px""alt=""img"">
                            </div>
                        </div>",0.435,"",0,"",NA,"","images/map02_RdYlBu_scaleRev_orientDef_270.png","fearful",1,2,2,"RdYlBu","orientDef","scaleRev","270",NA,NA
"","","","","","html-slider-response",79,639462,"0.0-73.0","4swuc5lwq7",24,NA,"<div style=""width:500px;"">
                            <p style=""font-size:50px; font-weight:bold;""
                            >fearful</p>
                            <div style=""width:240px; margin: auto;"">
                                <img src=""images/map15_PuRd_scaleDef_orientMir_000.png"" style= ""width:200px""alt=""img"">
                            </div>
                        </div>",0,"",0,"",NA,"","images/map15_PuRd_scaleDef_orientMir_000.png","fearful",1,15,15,"PuRd","orientMir","scaleDef","000",NA,NA
"","","","","","html-slider-response",80,646913,"0.0-74.0","4swuc5lwq7",24,NA,"<div style=""width:500px;"">
                            <p style=""font-size:50px; font-weight:bold;""
                            >fearful</p>
                            <div style=""width:240px; margin: auto;"">
                                <img src=""images/map10_plasma_scaleRev_orientDef_270.png"" style= ""width:200px""alt=""img"">
                            </div>
                        </div>",0.6775,"",0,"",NA,"","images/map10_plasma_scaleRev_orientDef_270.png","fearful",1,10,10,"plasma","orientDef","scaleRev","270",NA,NA
"","","","","","html-slider-response",81,652288,"0.0-75.0","4swuc5lwq7",24,NA,"<div style=""width:500px;"">
                            <p style=""font-size:50px; font-weight:bold;""
                            >fearful</p>
                            <div style=""width:240px; margin: auto;"">
                                <img src=""images/map10_magma_scaleRev_orientMir_270.png"" style= ""width:200px""alt=""img"">
                            </div>
                        </div>",0.8225,"",0,"",NA,"","images/map10_magma_scaleRev_orientMir_270.png","fearful",1,10,10,"magma","orientMir","scaleRev","270",NA,NA
"","","","","","html-slider-response",82,655962,"0.0-76.0","4swuc5lwq7",24,NA,"<div style=""width:500px;"">
                            <p style=""font-size:50px; font-weight:bold;""
                            >fearful</p>
                            <div style=""width:240px; margin: auto;"">
                                <img src=""images/map26_BuGn_scaleDef_orientDef_180.png"" style= ""width:200px""alt=""img"">
                            </div>
                        </div>",0.31,"",0,"",NA,"","images/map26_BuGn_scaleDef_orientDef_180.png","fearful",1,26,26,"BuGn","orientDef","scaleDef","180",NA,NA
"","","","","","html-slider-response",83,658881,"0.0-77.0","4swuc5lwq7",24,NA,"<div style=""width:500px;"">
                            <p style=""font-size:50px; font-weight:bold;""
                            >fearful</p>
                            <div style=""width:240px; margin: auto;"">
                                <img src=""images/map27_PRGn_scaleRev_orientDef_090.png"" style= ""width:200px""alt=""img"">
                            </div>
                        </div>",0.425,"",0,"",NA,"","images/map27_PRGn_scaleRev_orientDef_090.png","fearful",1,27,27,"PRGn","orientDef","scaleRev","090",NA,NA
"","","","","","html-slider-response",84,661783,"0.0-78.0","4swuc5lwq7",24,NA,"<div style=""width:500px;"">
                            <p style=""font-size:50px; font-weight:bold;""
                            >fearful</p>
                            <div style=""width:240px; margin: auto;"">
                                <img src=""images/map07_turbo_scaleDef_orientMir_180.png"" style= ""width:200px""alt=""img"">
                            </div>
                        </div>",0.295,"",0,"",NA,"","images/map07_turbo_scaleDef_orientMir_180.png","fearful",1,7,7,"turbo","orientMir","scaleDef","180",NA,NA
"","","","","","html-slider-response",85,680846,"0.0-79.0","4swuc5lwq7",24,NA,"<div style=""width:500px;"">
                            <p style=""font-size:50px; font-weight:bold;""
                            >fearful</p>
                            <div style=""width:240px; margin: auto;"">
                                <img src=""images/map02_RdYlGn_scaleDef_orientMir_000.png"" style= ""width:200px""alt=""img"">
                            </div>
                        </div>",0.4375,"",0,"",NA,"","images/map02_RdYlGn_scaleDef_orientMir_000.png","fearful",1,2,2,"RdYlGn","orientMir","scaleDef","000",NA,NA
"","","","","","html-slider-response",86,683157,"0.0-80.0","4swuc5lwq7",24,NA,"<div style=""width:500px;"">
                            <p style=""font-size:50px; font-weight:bold;""
                            >fearful</p>
                            <div style=""width:240px; margin: auto;"">
                                <img src=""images/map02_RdYlBu_scaleDef_orientDef_180.png"" style= ""width:200px""alt=""img"">
                            </div>
                        </div>",0.525,"",0,"",NA,"","images/map02_RdYlBu_scaleDef_orientDef_180.png","fearful",1,2,2,"RdYlBu","orientDef","scaleDef","180",NA,NA
"","","","","","html-slider-response",87,685292,"0.0-81.0","4swuc5lwq7",24,NA,"<div style=""width:500px;"">
                            <p style=""font-size:50px; font-weight:bold;""
                            >fearful</p>
                            <div style=""width:240px; margin: auto;"">
                                <img src=""images/map26_YlGn_scaleDef_orientMir_000.png"" style= ""width:200px""alt=""img"">
                            </div>
                        </div>",0.315,"",0,"",NA,"","images/map26_YlGn_scaleDef_orientMir_000.png","fearful",1,26,26,"YlGn","orientMir","scaleDef","000",NA,NA
"","","","","","html-slider-response",88,687473,"0.0-82.0","4swuc5lwq7",24,NA,"<div style=""width:500px;"">
                            <p style=""font-size:50px; font-weight:bold;""
                            >fearful</p>
                            <div style=""width:240px; margin: auto;"">
                                <img src=""images/map12_cividis_scaleRev_orientDef_090.png"" style= ""width:200px""alt=""img"">
                            </div>
                        </div>",0.67,"",0,"",NA,"","images/map12_cividis_scaleRev_orientDef_090.png","fearful",1,12,12,"cividis","orientDef","scaleRev","090",NA,NA
"","","","","","html-slider-response",89,690100,"0.0-83.0","4swuc5lwq7",24,NA,"<div style=""width:500px;"">
                            <p style=""font-size:50px; font-weight:bold;""
                            >fearful</p>
                            <div style=""width:240px; margin: auto;"">
                                <img src=""images/map12_Purples_scaleDef_orientMir_000.png"" style= ""width:200px""alt=""img"">
                            </div>
                        </div>",0.545,"",0,"",NA,"","images/map12_Purples_scaleDef_orientMir_000.png","fearful",1,12,12,"Purples","orientMir","scaleDef","000",NA,NA
"","","","","","html-slider-response",90,691849,"0.0-84.0","4swuc5lwq7",24,NA,"<div style=""width:500px;"">
                            <p style=""font-size:50px; font-weight:bold;""
                            >fearful</p>
                            <div style=""width:240px; margin: auto;"">
                                <img src=""images/map05_berlin_scaleDef_orientMir_180.png"" style= ""width:200px""alt=""img"">
                            </div>
                        </div>",0.775,"",0,"",NA,"","images/map05_berlin_scaleDef_orientMir_180.png","fearful",1,5,5,"berlin","orientMir","scaleDef","180",NA,NA
"","","","","","html-slider-response",91,694025,"0.0-85.0","4swuc5lwq7",24,NA,"<div style=""width:500px;"">
                            <p style=""font-size:50px; font-weight:bold;""
                            >fearful</p>
                            <div style=""width:240px; margin: auto;"">
                                <img src=""images/map15_RdPu_scaleRev_orientMir_270.png"" style= ""width:200px""alt=""img"">
                            </div>
                        </div>",0.475,"",0,"",NA,"","images/map15_RdPu_scaleRev_orientMir_270.png","fearful",1,15,15,"RdPu","orientMir","scaleRev","270",NA,NA
"","","","","","html-slider-response",92,696558,"0.0-86.0","4swuc5lwq7",24,NA,"<div style=""width:500px;"">
                            <p style=""font-size:50px; font-weight:bold;""
                            >fearful</p>
                            <div style=""width:240px; margin: auto;"">
                                <img src=""images/map15_OrRd_scaleDef_orientDef_180.png"" style= ""width:200px""alt=""img"">
                            </div>
                        </div>",0.4825,"",0,"",NA,"","images/map15_OrRd_scaleDef_orientDef_180.png","fearful",1,15,15,"OrRd","orientDef","scaleDef","180",NA,NA
"","","","","","html-slider-response",93,698607,"0.0-87.0","4swuc5lwq7",24,NA,"<div style=""width:500px;"">
                            <p style=""font-size:50px; font-weight:bold;""
                            >fearful</p>
                            <div style=""width:240px; margin: auto;"">
                                <img src=""images/map05_bwr_scaleDef_orientDef_180.png"" style= ""width:200px""alt=""img"">
                            </div>
                        </div>",0.355,"",0,"",NA,"","images/map05_bwr_scaleDef_orientDef_180.png","fearful",1,5,5,"bwr","orientDef","scaleDef","180",NA,NA
"","","","","","html-slider-response",94,701461,"0.0-88.0","4swuc5lwq7",24,NA,"<div style=""width:500px;"">
                            <p style=""font-size:50px; font-weight:bold;""
                            >fearful</p>
                            <div style=""width:240px; margin: auto;"">
                                <img src=""images/map23_PuBu_scaleDef_orientMir_000.png"" style= ""width:200px""alt=""img"">
                            </div>
                        </div>",0.4725,"",0,"",NA,"","images/map23_PuBu_scaleDef_orientMir_000.png","fearful",1,23,23,"PuBu","orientMir","scaleDef","000",NA,NA
"","","","","","html-slider-response",95,705911,"0.0-89.0","4swuc5lwq7",24,NA,"<div style=""width:500px;"">
                            <p style=""font-size:50px; font-weight:bold;""
                            >fearful</p>
                            <div style=""width:240px; margin: auto;"">
                                <img src=""images/map26_YlGn_scaleRev_orientMir_090.png"" style= ""width:200px""alt=""img"">
                            </div>
                        </div>",0.3825,"",0,"",NA,"","images/map26_YlGn_scaleRev_orientMir_090.png","fearful",1,26,26,"YlGn","orientMir","scaleRev","090",NA,NA
"","","","","","html-slider-response",96,709244,"0.0-90.0","4swuc5lwq7",24,NA,"<div style=""width:500px;"">
                            <p style=""font-size:50px; font-weight:bold;""
                            >fearful</p>
                            <div style=""width:240px; margin: auto;"">
                                <img src=""images/map05_coolwarm_scaleDef_orientDef_000.png"" style= ""width:200px""alt=""img"">
                            </div>
                        </div>",0.4725,"",0,"",NA,"","images/map05_coolwarm_scaleDef_orientDef_000.png","fearful",1,5,5,"coolwarm","orientDef","scaleDef","000",NA,NA
"","","","","","html-slider-response",97,712596,"0.0-91.0","4swuc5lwq7",24,NA,"<div style=""width:500px;"">
                            <p style=""font-size:50px; font-weight:bold;""
                            >fearful</p>
                            <div style=""width:240px; margin: auto;"">
                                <img src=""images/map02_RdBu_scaleDef_orientDef_000.png"" style= ""width:200px""alt=""img"">
                            </div>
                        </div>",0.465,"",0,"",NA,"","images/map02_RdBu_scaleDef_orientDef_000.png","fearful",1,2,2,"RdBu","orientDef","scaleDef","000",NA,NA
"","","","","","html-slider-response",98,714744,"0.0-92.0","4swuc5lwq7",24,NA,"<div style=""width:500px;"">
                            <p style=""font-size:50px; font-weight:bold;""
                            >fearful</p>
                            <div style=""width:240px; margin: auto;"">
                                <img src=""images/map13_Greens_scaleDef_orientDef_000.png"" style= ""width:200px""alt=""img"">
                            </div>
                        </div>",0.3175,"",0,"",NA,"","images/map13_Greens_scaleDef_orientDef_000.png","fearful",1,13,13,"Greens","orientDef","scaleDef","000",NA,NA
"","","","","","html-slider-response",99,718365,"0.0-93.0","4swuc5lwq7",24,NA,"<div style=""width:500px;"">
                            <p style=""font-size:50px; font-weight:bold;""
                            >fearful</p>
                            <div style=""width:240px; margin: auto;"">
                                <img src=""images/map12_Blues_scaleDef_orientMir_180.png"" style= ""width:200px""alt=""img"">
                            </div>
                        </div>",0.4875,"",0,"",NA,"","images/map12_Blues_scaleDef_orientMir_180.png","fearful",1,12,12,"Blues","orientMir","scaleDef","180",NA,NA
"","","","","","html-slider-response",100,720650,"0.0-94.0","4swuc5lwq7",24,NA,"<div style=""width:500px;"">
                            <p style=""font-size:50px; font-weight:bold;""
                            >fearful</p>
                            <div style=""width:240px; margin: auto;"">
                                <img src=""images/map23_GnBu_scaleDef_orientDef_180.png"" style= ""width:200px""alt=""img"">
                            </div>
                        </div>",0.445,"",0,"",NA,"","images/map23_GnBu_scaleDef_orientDef_180.png","fearful",1,23,23,"GnBu","orientDef","scaleDef","180",NA,NA
"","","","","","html-button-response",101,723013,"0.0-95.0","4swuc5lwq7",24,1855,"<p>Great Job! You've finished block 1.<br></br> You have 4 block(s) left to go.<br></br></p>",0.5,"",NA,"",NA,"","","",NA,NA,NA,"","","","",NA,NA
"","","","","","html-button-response",102,724410,"0.0-96.0","4swuc5lwq7",24,1395,"<p>In this block of trials, you will be asked to rate how much you associate each map with:</p > <p style = 'font-size:150%; font-weight: bold'>angry</p><br></br>",0.5,"",NA,"",NA,"","","",NA,NA,NA,"","","","",NA,NA
"","","","","","html-slider-response",103,726998,"0.0-97.0","4swuc5lwq7",24,NA,"<div style=""width:500px;"">
                            <p style=""font-size:50px; font-weight:bold;""
                            >angry</p>
                            <div style=""width:240px; margin: auto;"">
                                <img src=""images/map23_YlGnBu_scaleDef_orientMir_180.png"" style= ""width:200px""alt=""img"">
                            </div>
                        </div>",0.205,"",0,"",NA,"","images/map23_YlGnBu_scaleDef_orientMir_180.png","angry",1,23,23,"YlGnBu","orientMir","scaleDef","180",NA,NA
"","","","","","html-slider-response",104,730995,"0.0-98.0","4swuc5lwq7",24,NA,"<div style=""width:500px;"">
                            <p style=""font-size:50px; font-weight:bold;""
                            >angry</p>
                            <div style=""width:240px; margin: auto;"">
                                <img src=""images/map13_YlOrBr_scaleRev_orientMir_270.png"" style= ""width:200px""alt=""img"">
                            </div>
                        </div>",0.525,"",0,"",NA,"","images/map13_YlOrBr_scaleRev_orientMir_270.png","angry",1,13,13,"YlOrBr","orientMir","scaleRev","270",NA,NA
"","","","","","html-slider-response",105,737612,"0.0-99.0","4swuc5lwq7",24,NA,"<div style=""width:500px;"">
                            <p style=""font-size:50px; font-weight:bold;""
                            >angry</p>
                            <div style=""width:240px; margin: auto;"">
                                <img src=""images/map05_seismic_scaleDef_orientMir_000.png"" style= ""width:200px""alt=""img"">
                            </div>
                        </div>",0.565,"",0,"",NA,"","images/map05_seismic_scaleDef_orientMir_000.png","angry",1,5,5,"seismic","orientMir","scaleDef","000",NA,NA
"","","","","","html-slider-response",106,740164,"0.0-100.0","4swuc5lwq7",24,NA,"<div style=""width:500px;"">
                            <p style=""font-size:50px; font-weight:bold;""
                            >angry</p>
                            <div style=""width:240px; margin: auto;"">
                                <img src=""images/map02_RdBu_scaleDef_orientDef_000.png"" style= ""width:200px""alt=""img"">
                            </div>
                        </div>",0.645,"",0,"",NA,"","images/map02_RdBu_scaleDef_orientDef_000.png","angry",1,2,2,"RdBu","orientDef","scaleDef","000",NA,NA
"","","","","","html-slider-response",107,742641,"0.0-101.0","4swuc5lwq7",24,NA,"<div style=""width:500px;"">
                            <p style=""font-size:50px; font-weight:bold;""
                            >angry</p>
                            <div style=""width:240px; margin: auto;"">
                                <img src=""images/map05_coolwarm_scaleDef_orientDef_000.png"" style= ""width:200px""alt=""img"">
                            </div>
                        </div>",0.66,"",0,"",NA,"","images/map05_coolwarm_scaleDef_orientDef_000.png","angry",1,5,5,"coolwarm","orientDef","scaleDef","000",NA,NA
"","","","","","html-slider-response",108,744617,"0.0-102.0","4swuc5lwq7",24,NA,"<div style=""width:500px;"">
                            <p style=""font-size:50px; font-weight:bold;""
                            >angry</p>
                            <div style=""width:240px; margin: auto;"">
                                <img src=""images/map26_PuBuGn_scaleDef_orientDef_000.png"" style= ""width:200px""alt=""img"">
                            </div>
                        </div>",0.41,"",0,"",NA,"","images/map26_PuBuGn_scaleDef_orientDef_000.png","angry",1,26,26,"PuBuGn","orientDef","scaleDef","000",NA,NA
"","","","","","html-slider-response",109,747093,"0.0-103.0","4swuc5lwq7",24,NA,"<div style=""width:500px;"">
                            <p style=""font-size:50px; font-weight:bold;""
                            >angry</p>
                            <div style=""width:240px; margin: auto;"">
                                <img src=""images/map07_gist_earth_scaleDef_orientMir_000.png"" style= ""width:200px""alt=""img"">
                            </div>
                        </div>",0.465,"",0,"",NA,"","images/map07_gist_earth_scaleDef_orientMir_000.png","angry",1,7,7,"gist","scaleDef","earth","orientMir",NA,NA
"","","","","","html-slider-response",110,749392,"0.0-104.0","4swuc5lwq7",24,NA,"<div style=""width:500px;"">
                            <p style=""font-size:50px; font-weight:bold;""
                            >angry</p>
                            <div style=""width:240px; margin: auto;"">
                                <img src=""images/map12_Blues_scaleDef_orientMir_180.png"" style= ""width:200px""alt=""img"">
                            </div>
                        </div>",0.345,"",0,"",NA,"","images/map12_Blues_scaleDef_orientMir_180.png","angry",1,12,12,"Blues","orientMir","scaleDef","180",NA,NA
"","","","","","html-slider-response",111,752109,"0.0-105.0","4swuc5lwq7",24,NA,"<div style=""width:500px;"">
                            <p style=""font-size:50px; font-weight:bold;""
                            >angry</p>
                            <div style=""width:240px; margin: auto;"">
                                <img src=""images/map10_viridis_scaleRev_orientDef_090.png"" style= ""width:200px""alt=""img"">
                            </div>
                        </div>",0.395,"",0,"",NA,"","images/map10_viridis_scaleRev_orientDef_090.png","angry",1,10,10,"viridis","orientDef","scaleRev","090",NA,NA
"","","","","","html-slider-response",112,757518,"0.0-106.0","4swuc5lwq7",24,NA,"<div style=""width:500px;"">
                            <p style=""font-size:50px; font-weight:bold;""
                            >angry</p>
                            <div style=""width:240px; margin: auto;"">
                                <img src=""images/map13_Oranges_scaleDef_orientDef_180.png"" style= ""width:200px""alt=""img"">
                            </div>
                        </div>",0.52,"",0,"",NA,"","images/map13_Oranges_scaleDef_orientDef_180.png","angry",1,13,13,"Oranges","orientDef","scaleDef","180",NA,NA
"","","","","","html-slider-response",113,760731,"0.0-107.0","4swuc5lwq7",24,NA,"<div style=""width:500px;"">
                            <p style=""font-size:50px; font-weight:bold;""
                            >angry</p>
                            <div style=""width:240px; margin: auto;"">
                                <img src=""images/map12_cividis_scaleRev_orientDef_090.png"" style= ""width:200px""alt=""img"">
                            </div>
                        </div>",0.925,"",0,"",NA,"","images/map12_cividis_scaleRev_orientDef_090.png","angry",1,12,12,"cividis","orientDef","scaleRev","090",NA,NA
"","","","","","html-slider-response",114,766694,"0.0-108.0","4swuc5lwq7",24,NA,"<div style=""width:500px;"">
                            <p style=""font-size:50px; font-weight:bold;""
                            >angry</p>
                            <div style=""width:240px; margin: auto;"">
                                <img src=""images/map23_BuPu_scaleRev_orientDef_090.png"" style= ""width:200px""alt=""img"">
                            </div>
                        </div>",0.43,"",0,"",NA,"","images/map23_BuPu_scaleRev_orientDef_090.png","angry",1,23,23,"BuPu","orientDef","scaleRev","090",NA,NA
"","","","","","html-slider-response",115,769119,"0.0-109.0","4swuc5lwq7",24,NA,"<div style=""width:500px;"">
                            <p style=""font-size:50px; font-weight:bold;""
                            >angry</p>
                            <div style=""width:240px; margin: auto;"">
                                <img src=""images/map07_vanimo_scaleDef_orientDef_180.png"" style= ""width:200px""alt=""img"">
                            </div>
                        </div>",0.555,"",0,"",NA,"","images/map07_vanimo_scaleDef_orientDef_180.png","angry",1,7,7,"vanimo","orientDef","scaleDef","180",NA,NA
"","","","","","html-slider-response",116,771160,"0.0-110.0","4swuc5lwq7",24,NA,"<div style=""width:500px;"">
                            <p style=""font-size:50px; font-weight:bold;""
                            >angry</p>
                            <div style=""width:240px; margin: auto;"">
                                <img src=""images/map07_managua_scaleRev_orientDef_090.png"" style= ""width:200px""alt=""img"">
                            </div>
                        </div>",0.605,"",0,"",NA,"","images/map07_managua_scaleRev_orientDef_090.png","angry",1,7,7,"managua","orientDef","scaleRev","090",NA,NA
"","","","","","html-slider-response",117,773540,"0.0-111.0","4swuc5lwq7",24,NA,"<div style=""width:500px;"">
                            <p style=""font-size:50px; font-weight:bold;""
                            >angry</p>
                            <div style=""width:240px; margin: auto;"">
                                <img src=""images/map07_turbo_scaleDef_orientMir_180.png"" style= ""width:200px""alt=""img"">
                            </div>
                        </div>",0.6775,"",0,"",NA,"","images/map07_turbo_scaleDef_orientMir_180.png","angry",1,7,7,"turbo","orientMir","scaleDef","180",NA,NA
"","","","","","html-slider-response",118,775413,"0.0-112.0","4swuc5lwq7",24,NA,"<div style=""width:500px;"">
                            <p style=""font-size:50px; font-weight:bold;""
                            >angry</p>
                            <div style=""width:240px; margin: auto;"">
                                <img src=""images/map26_BuGn_scaleDef_orientDef_180.png"" style= ""width:200px""alt=""img"">
                            </div>
                        </div>",0.435,"",0,"",NA,"","images/map26_BuGn_scaleDef_orientDef_180.png","angry",1,26,26,"BuGn","orientDef","scaleDef","180",NA,NA
"","","","","","html-slider-response",119,778177,"0.0-113.0","4swuc5lwq7",24,NA,"<div style=""width:500px;"">
                            <p style=""font-size:50px; font-weight:bold;""
                            >angry</p>
                            <div style=""width:240px; margin: auto;"">
                                <img src=""images/map15_YlOrRd_scaleRev_orientDef_090.png"" style= ""width:200px""alt=""img"">
                            </div>
                        </div>",0.605,"",0,"",NA,"","images/map15_YlOrRd_scaleRev_orientDef_090.png","angry",1,15,15,"YlOrRd","orientDef","scaleRev","090",NA,NA
"","","","","","html-slider-response",120,780113,"0.0-114.0","4swuc5lwq7",24,NA,"<div style=""width:500px;"">
                            <p style=""font-size:50px; font-weight:bold;""
                            >angry</p>
                            <div style=""width:240px; margin: auto;"">
                                <img src=""images/map10_inferno_scaleDef_orientMir_000.png"" style= ""width:200px""alt=""img"">
                            </div>
                        </div>",0.6275,"",0,"",NA,"","images/map10_inferno_scaleDef_orientMir_000.png","angry",1,10,10,"inferno","orientMir","scaleDef","000",NA,NA
"","","","","","html-slider-response",121,783491,"0.0-115.0","4swuc5lwq7",24,NA,"<div style=""width:500px;"">
                            <p style=""font-size:50px; font-weight:bold;""
                            >angry</p>
                            <div style=""width:240px; margin: auto;"">
                                <img src=""images/map02_RdYlGn_scaleDef_orientMir_000.png"" style= ""width:200px""alt=""img"">
                            </div>
                        </div>",0.69,"",0,"",NA,"","images/map02_RdYlGn_scaleDef_orientMir_000.png","angry",1,2,2,"RdYlGn","orientMir","scaleDef","000",NA,NA
"","","","","","html-slider-response",122,785391,"0.0-116.0","4swuc5lwq7",24,NA,"<div style=""width:500px;"">
                            <p style=""font-size:50px; font-weight:bold;""
                            >angry</p>
                            <div style=""width:240px; margin: auto;"">
                                <img src=""images/map12_Purples_scaleRev_orientMir_090.png"" style= ""width:200px""alt=""img"">
                            </div>
                        </div>",0.435,"",0,"",NA,"","images/map12_Purples_scaleRev_orientMir_090.png","angry",1,12,12,"Purples","orientMir","scaleRev","090",NA,NA
"","","","","","html-slider-response",123,787679,"0.0-117.0","4swuc5lwq7",24,NA,"<div style=""width:500px;"">
                            <p style=""font-size:50px; font-weight:bold;""
                            >angry</p>
                            <div style=""width:240px; margin: auto;"">
                                <img src=""images/map10_viridis_scaleDef_orientDef_000.png"" style= ""width:200px""alt=""img"">
                            </div>
                        </div>",0.345,"",0,"",NA,"","images/map10_viridis_scaleDef_orientDef_000.png","angry",1,10,10,"viridis","orientDef","scaleDef","000",NA,NA
"","","","","","html-slider-response",124,790058,"0.0-118.0","4swuc5lwq7",24,NA,"<div style=""width:500px;"">
                            <p style=""font-size:50px; font-weight:bold;""
                            >angry</p>
                            <div style=""width:240px; margin: auto;"">
                                <img src=""images/map15_RdPu_scaleRev_orientMir_270.png"" style= ""width:200px""alt=""img"">
                            </div>
                        </div>",0.225,"",0,"",NA,"","images/map15_RdPu_scaleRev_orientMir_270.png","angry",1,15,15,"RdPu","orientMir","scaleRev","270",NA,NA
"","","","","","html-slider-response",125,792036,"0.0-119.0","4swuc5lwq7",24,NA,"<div style=""width:500px;"">
                            <p style=""font-size:50px; font-weight:bold;""
                            >angry</p>
                            <div style=""width:240px; margin: auto;"">
                                <img src=""images/map13_Greens_scaleDef_orientDef_000.png"" style= ""width:200px""alt=""img"">
                            </div>
                        </div>",0.265,"",0,"",NA,"","images/map13_Greens_scaleDef_orientDef_000.png","angry",1,13,13,"Greens","orientDef","scaleDef","000",NA,NA
"","","","","","html-slider-response",126,795014,"0.0-120.0","4swuc5lwq7",24,NA,"<div style=""width:500px;"">
                            <p style=""font-size:50px; font-weight:bold;""
                            >angry</p>
                            <div style=""width:240px; margin: auto;"">
                                <img src=""images/map05_coolwarm_scaleRev_orientDef_090.png"" style= ""width:200px""alt=""img"">
                            </div>
                        </div>",0.655,"",0,"",NA,"","images/map05_coolwarm_scaleRev_orientDef_090.png","angry",1,5,5,"coolwarm","orientDef","scaleRev","090",NA,NA
"","","","","","html-slider-response",127,805381,"0.0-121.0","4swuc5lwq7",24,NA,"<div style=""width:500px;"">
                            <p style=""font-size:50px; font-weight:bold;""
                            >angry</p>
                            <div style=""width:240px; margin: auto;"">
                                <img src=""images/map27_RdGy_scaleRev_orientMir_270.png"" style= ""width:200px""alt=""img"">
                            </div>
                        </div>",0.5025,"",0,"",NA,"","images/map27_RdGy_scaleRev_orientMir_270.png","angry",1,27,27,"RdGy","orientMir","scaleRev","270",NA,NA
"","","","","","html-slider-response",128,819227,"0.0-122.0","4swuc5lwq7",24,NA,"<div style=""width:500px;"">
                            <p style=""font-size:50px; font-weight:bold;""
                            >angry</p>
                            <div style=""width:240px; margin: auto;"">
                                <img src=""images/map27_PRGn_scaleRev_orientDef_090.png"" style= ""width:200px""alt=""img"">
                            </div>
                        </div>",0.525,"",0,"",NA,"","images/map27_PRGn_scaleRev_orientDef_090.png","angry",1,27,27,"PRGn","orientDef","scaleRev","090",NA,NA
"","","","","","html-slider-response",129,821622,"0.0-123.0","4swuc5lwq7",24,NA,"<div style=""width:500px;"">
                            <p style=""font-size:50px; font-weight:bold;""
                            >angry</p>
                            <div style=""width:240px; margin: auto;"">
                                <img src=""images/map12_Purples_scaleDef_orientMir_000.png"" style= ""width:200px""alt=""img"">
                            </div>
                        </div>",0.34,"",0,"",NA,"","images/map12_Purples_scaleDef_orientMir_000.png","angry",1,12,12,"Purples","orientMir","scaleDef","000",NA,NA
"","","","","","html-slider-response",130,823816,"0.0-124.0","4swuc5lwq7",24,NA,"<div style=""width:500px;"">
                            <p style=""font-size:50px; font-weight:bold;""
                            >angry</p>
                            <div style=""width:240px; margin: auto;"">
                                <img src=""images/map26_PuBuGn_scaleRev_orientDef_090.png"" style= ""width:200px""alt=""img"">
                            </div>
                        </div>",0.34,"",0,"",NA,"","images/map26_PuBuGn_scaleRev_orientDef_090.png","angry",1,26,26,"PuBuGn","orientDef","scaleRev","090",NA,NA
"","","","","","html-slider-response",131,826084,"0.0-125.0","4swuc5lwq7",24,NA,"<div style=""width:500px;"">
                            <p style=""font-size:50px; font-weight:bold;""
                            >angry</p>
                            <div style=""width:240px; margin: auto;"">
                                <img src=""images/map27_PuOr_scaleRev_orientMir_090.png"" style= ""width:200px""alt=""img"">
                            </div>
                        </div>",0.915,"",0,"",NA,"","images/map27_PuOr_scaleRev_orientMir_090.png","angry",1,27,27,"PuOr","orientMir","scaleRev","090",NA,NA
"","","","","","html-slider-response",132,829012,"0.0-126.0","4swuc5lwq7",24,NA,"<div style=""width:500px;"">
                            <p style=""font-size:50px; font-weight:bold;""
                            >angry</p>
                            <div style=""width:240px; margin: auto;"">
                                <img src=""images/map12_Greys_scaleRev_orientDef_270.png"" style= ""width:200px""alt=""img"">
                            </div>
                        </div>",0.475,"",0,"",NA,"","images/map12_Greys_scaleRev_orientDef_270.png","angry",1,12,12,"Greys","orientDef","scaleRev","270",NA,NA
"","","","","","html-slider-response",133,831305,"0.0-127.0","4swuc5lwq7",24,NA,"<div style=""width:500px;"">
                            <p style=""font-size:50px; font-weight:bold;""
                            >angry</p>
                            <div style=""width:240px; margin: auto;"">
                                <img src=""images/map05_berlin_scaleDef_orientMir_180.png"" style= ""width:200px""alt=""img"">
                            </div>
                        </div>",0.965,"",0,"",NA,"","images/map05_berlin_scaleDef_orientMir_180.png","angry",1,5,5,"berlin","orientMir","scaleDef","180",NA,NA
"","","","","","html-slider-response",134,834443,"0.0-128.0","4swuc5lwq7",24,NA,"<div style=""width:500px;"">
                            <p style=""font-size:50px; font-weight:bold;""
                            >angry</p>
                            <div style=""width:240px; margin: auto;"">
                                <img src=""images/map02_RdYlGn_scaleRev_orientMir_090.png"" style= ""width:200px""alt=""img"">
                            </div>
                        </div>",0.8525,"",0,"",NA,"","images/map02_RdYlGn_scaleRev_orientMir_090.png","angry",1,2,2,"RdYlGn","orientMir","scaleRev","090",NA,NA
"","","","","","html-slider-response",135,837127,"0.0-129.0","4swuc5lwq7",24,NA,"<div style=""width:500px;"">
                            <p style=""font-size:50px; font-weight:bold;""
                            >angry</p>
                            <div style=""width:240px; margin: auto;"">
                                <img src=""images/map15_RdPu_scaleDef_orientMir_180.png"" style= ""width:200px""alt=""img"">
                            </div>
                        </div>",0.005,"",0,"",NA,"","images/map15_RdPu_scaleDef_orientMir_180.png","angry",1,15,15,"RdPu","orientMir","scaleDef","180",NA,NA
"","","","","","html-slider-response",136,844250,"0.0-130.0","4swuc5lwq7",24,NA,"<div style=""width:500px;"">
                            <p style=""font-size:50px; font-weight:bold;""
                            >angry</p>
                            <div style=""width:240px; margin: auto;"">
                                <img src=""images/map10_plasma_scaleRev_orientDef_270.png"" style= ""width:200px""alt=""img"">
                            </div>
                        </div>",0.45,"",0,"",NA,"","images/map10_plasma_scaleRev_orientDef_270.png","angry",1,10,10,"plasma","orientDef","scaleRev","270",NA,NA
"","","","","","html-slider-response",137,846479,"0.0-131.0","4swuc5lwq7",24,NA,"<div style=""width:500px;"">
                            <p style=""font-size:50px; font-weight:bold;""
                            >angry</p>
                            <div style=""width:240px; margin: auto;"">
                                <img src=""images/map10_plasma_scaleDef_orientDef_180.png"" style= ""width:200px""alt=""img"">
                            </div>
                        </div>",0.375,"",0,"",NA,"","images/map10_plasma_scaleDef_orientDef_180.png","angry",1,10,10,"plasma","orientDef","scaleDef","180",NA,NA
"","","","","","html-slider-response",138,849135,"0.0-132.0","4swuc5lwq7",24,NA,"<div style=""width:500px;"">
                            <p style=""font-size:50px; font-weight:bold;""
                            >angry</p>
                            <div style=""width:240px; margin: auto;"">
                                <img src=""images/map13_Greens_scaleRev_orientDef_090.png"" style= ""width:200px""alt=""img"">
                            </div>
                        </div>",0.295,"",0,"",NA,"","images/map13_Greens_scaleRev_orientDef_090.png","angry",1,13,13,"Greens","orientDef","scaleRev","090",NA,NA
"","","","","","html-slider-response",139,851965,"0.0-133.0","4swuc5lwq7",24,NA,"<div style=""width:500px;"">
                            <p style=""font-size:50px; font-weight:bold;""
                            >angry</p>
                            <div style=""width:240px; margin: auto;"">
                                <img src=""images/map02_Spectral_scaleRev_orientMir_270.png"" style= ""width:200px""alt=""img"">
                            </div>
                        </div>",0.485,"",0,"",NA,"","images/map02_Spectral_scaleRev_orientMir_270.png","angry",1,2,2,"Spectral","orientMir","scaleRev","270",NA,NA
"","","","","","html-slider-response",140,858141,"0.0-134.0","4swuc5lwq7",24,NA,"<div style=""width:500px;"">
                            <p style=""font-size:50px; font-weight:bold;""
                            >angry</p>
                            <div style=""width:240px; margin: auto;"">
                                <img src=""images/map23_YlGnBu_scaleRev_orientMir_270.png"" style= ""width:200px""alt=""img"">
                            </div>
                        </div>",0.19,"",0,"",NA,"","images/map23_YlGnBu_scaleRev_orientMir_270.png","angry",1,23,23,"YlGnBu","orientMir","scaleRev","270",NA,NA
"","","","","","html-slider-response",141,861714,"0.0-135.0","4swuc5lwq7",24,NA,"<div style=""width:500px;"">
                            <p style=""font-size:50px; font-weight:bold;""
                            >angry</p>
                            <div style=""width:240px; margin: auto;"">
                                <img src=""images/map05_bwr_scaleRev_orientDef_270.png"" style= ""width:200px""alt=""img"">
                            </div>
                        </div>",0.4825,"",0,"",NA,"","images/map05_bwr_scaleRev_orientDef_270.png","angry",1,5,5,"bwr","orientDef","scaleRev","270",NA,NA
"","","","","","html-slider-response",142,864421,"0.0-136.0","4swuc5lwq7",24,NA,"<div style=""width:500px;"">
                            <p style=""font-size:50px; font-weight:bold;""
                            >angry</p>
                            <div style=""width:240px; margin: auto;"">
                                <img src=""images/map13_Oranges_scaleRev_orientDef_270.png"" style= ""width:200px""alt=""img"">
                            </div>
                        </div>",0.475,"",0,"",NA,"","images/map13_Oranges_scaleRev_orientDef_270.png","angry",1,13,13,"Oranges","orientDef","scaleRev","270",NA,NA
"","","","","","html-button-response",143,866782,"0.0-137.0","4swuc5lwq7",24,1850,"<p>You are doing great!<br></br> You are halway done with the current block. When you are ready to continue, click the 'Continue' button.</p>",0.5,"",NA,"",NA,"","","",NA,NA,NA,"","","","",NA,NA
"","","","","","html-slider-response",144,872805,"0.0-138.0","4swuc5lwq7",24,NA,"<div style=""width:500px;"">
                            <p style=""font-size:50px; font-weight:bold;""
                            >angry</p>
                            <div style=""width:240px; margin: auto;"">
                                <img src=""images/map02_Spectral_scaleDef_orientMir_180.png"" style= ""width:200px""alt=""img"">
                            </div>
                        </div>",0.5375,"",0,"",NA,"","images/map02_Spectral_scaleDef_orientMir_180.png","angry",1,2,2,"Spectral","orientMir","scaleDef","180",NA,NA
"","","","","","html-slider-response",145,875107,"0.0-139.0","4swuc5lwq7",24,NA,"<div style=""width:500px;"">
                            <p style=""font-size:50px; font-weight:bold;""
                            >angry</p>
                            <div style=""width:240px; margin: auto;"">
                                <img src=""images/map23_BuPu_scaleDef_orientDef_000.png"" style= ""width:200px""alt=""img"">
                            </div>
                        </div>",0.275,"",0,"",NA,"","images/map23_BuPu_scaleDef_orientDef_000.png","angry",1,23,23,"BuPu","orientDef","scaleDef","000",NA,NA
"","","","","","html-slider-response",146,878708,"0.0-140.0","4swuc5lwq7",24,NA,"<div style=""width:500px;"">
                            <p style=""font-size:50px; font-weight:bold;""
                            >angry</p>
                            <div style=""width:240px; margin: auto;"">
                                <img src=""images/map27_PRGn_scaleDef_orientDef_000.png"" style= ""width:200px""alt=""img"">
                            </div>
                        </div>",0.54,"",0,"",NA,"","images/map27_PRGn_scaleDef_orientDef_000.png","angry",1,27,27,"PRGn","orientDef","scaleDef","000",NA,NA
"","","","","","html-slider-response",147,884381,"0.0-141.0","4swuc5lwq7",24,NA,"<div style=""width:500px;"">
                            <p style=""font-size:50px; font-weight:bold;""
                            >angry</p>
                            <div style=""width:240px; margin: auto;"">
                                <img src=""images/map27_BrBG_scaleRev_orientDef_270.png"" style= ""width:200px""alt=""img"">
                            </div>
                        </div>",0.33,"",0,"",NA,"","images/map27_BrBG_scaleRev_orientDef_270.png","angry",1,27,27,"BrBG","orientDef","scaleRev","270",NA,NA
"","","","","","html-slider-response",148,887153,"0.0-142.0","4swuc5lwq7",24,NA,"<div style=""width:500px;"">
                            <p style=""font-size:50px; font-weight:bold;""
                            >angry</p>
                            <div style=""width:240px; margin: auto;"">
                                <img src=""images/map07_turbo_scaleRev_orientMir_270.png"" style= ""width:200px""alt=""img"">
                            </div>
                        </div>",0.8725,"",0,"",NA,"","images/map07_turbo_scaleRev_orientMir_270.png","angry",1,7,7,"turbo","orientMir","scaleRev","270",NA,NA
"","","","","","html-slider-response",149,889675,"0.0-143.0","4swuc5lwq7",24,NA,"<div style=""width:500px;"">
                            <p style=""font-size:50px; font-weight:bold;""
                            >angry</p>
                            <div style=""width:240px; margin: auto;"">
                                <img src=""images/map10_magma_scaleRev_orientMir_270.png"" style= ""width:200px""alt=""img"">
                            </div>
                        </div>",0.37,"",0,"",NA,"","images/map10_magma_scaleRev_orientMir_270.png","angry",1,10,10,"magma","orientMir","scaleRev","270",NA,NA
"","","","","","html-slider-response",150,892000,"0.0-144.0","4swuc5lwq7",24,NA,"<div style=""width:500px;"">
                            <p style=""font-size:50px; font-weight:bold;""
                            >angry</p>
                            <div style=""width:240px; margin: auto;"">
                                <img src=""images/map15_OrRd_scaleRev_orientDef_270.png"" style= ""width:200px""alt=""img"">
                            </div>
                        </div>",0.555,"",0,"",NA,"","images/map15_OrRd_scaleRev_orientDef_270.png","angry",1,15,15,"OrRd","orientDef","scaleRev","270",NA,NA
"","","","","","html-slider-response",151,894065,"0.0-145.0","4swuc5lwq7",24,NA,"<div style=""width:500px;"">
                            <p style=""font-size:50px; font-weight:bold;""
                            >angry</p>
                            <div style=""width:240px; margin: auto;"">
                                <img src=""images/map26_YlGn_scaleDef_orientMir_000.png"" style= ""width:200px""alt=""img"">
                            </div>
                        </div>",0.3725,"",0,"",NA,"","images/map26_YlGn_scaleDef_orientMir_000.png","angry",1,26,26,"YlGn","orientMir","scaleDef","000",NA,NA
"","","","","","html-slider-response",152,896718,"0.0-146.0","4swuc5lwq7",24,NA,"<div style=""width:500px;"">
                            <p style=""font-size:50px; font-weight:bold;""
                            >angry</p>
                            <div style=""width:240px; margin: auto;"">
                                <img src=""images/map12_cividis_scaleDef_orientDef_000.png"" style= ""width:200px""alt=""img"">
                            </div>
                        </div>",0.83,"",0,"",NA,"","images/map12_cividis_scaleDef_orientDef_000.png","angry",1,12,12,"cividis","orientDef","scaleDef","000",NA,NA
"","","","","","html-slider-response",153,899535,"0.0-147.0","4swuc5lwq7",24,NA,"<div style=""width:500px;"">
                            <p style=""font-size:50px; font-weight:bold;""
                            >angry</p>
                            <div style=""width:240px; margin: auto;"">
                                <img src=""images/map15_OrRd_scaleDef_orientDef_180.png"" style= ""width:200px""alt=""img"">
                            </div>
                        </div>",0.4275,"",0,"",NA,"","images/map15_OrRd_scaleDef_orientDef_180.png","angry",1,15,15,"OrRd","orientDef","scaleDef","180",NA,NA
"","","","","","html-slider-response",154,901578,"0.0-148.0","4swuc5lwq7",24,NA,"<div style=""width:500px;"">
                            <p style=""font-size:50px; font-weight:bold;""
                            >angry</p>
                            <div style=""width:240px; margin: auto;"">
                                <img src=""images/map15_YlOrRd_scaleDef_orientDef_000.png"" style= ""width:200px""alt=""img"">
                            </div>
                        </div>",0.4025,"",0,"",NA,"","images/map15_YlOrRd_scaleDef_orientDef_000.png","angry",1,15,15,"YlOrRd","orientDef","scaleDef","000",NA,NA
"","","","","","html-slider-response",155,905382,"0.0-149.0","4swuc5lwq7",24,NA,"<div style=""width:500px;"">
                            <p style=""font-size:50px; font-weight:bold;""
                            >angry</p>
                            <div style=""width:240px; margin: auto;"">
                                <img src=""images/map26_PiYG_scaleDef_orientMir_180.png"" style= ""width:200px""alt=""img"">
                            </div>
                        </div>",0.015,"",0,"",NA,"","images/map26_PiYG_scaleDef_orientMir_180.png","angry",1,26,26,"PiYG","orientMir","scaleDef","180",NA,NA
"","","","","","html-slider-response",156,908097,"0.0-150.0","4swuc5lwq7",24,NA,"<div style=""width:500px;"">
                            <p style=""font-size:50px; font-weight:bold;""
                            >angry</p>
                            <div style=""width:240px; margin: auto;"">
                                <img src=""images/map13_Reds_scaleRev_orientMir_090.png"" style= ""width:200px""alt=""img"">
                            </div>
                        </div>",0.575,"",0,"",NA,"","images/map13_Reds_scaleRev_orientMir_090.png","angry",1,13,13,"Reds","orientMir","scaleRev","090",NA,NA
"","","","","","html-slider-response",157,910741,"0.0-151.0","4swuc5lwq7",24,NA,"<div style=""width:500px;"">
                            <p style=""font-size:50px; font-weight:bold;""
                            >angry</p>
                            <div style=""width:240px; margin: auto;"">
                                <img src=""images/map15_PuRd_scaleRev_orientMir_090.png"" style= ""width:200px""alt=""img"">
                            </div>
                        </div>",0.03,"",0,"",NA,"","images/map15_PuRd_scaleRev_orientMir_090.png","angry",1,15,15,"PuRd","orientMir","scaleRev","090",NA,NA
"","","","","","html-slider-response",158,913972,"0.0-152.0","4swuc5lwq7",24,NA,"<div style=""width:500px;"">
                            <p style=""font-size:50px; font-weight:bold;""
                            >angry</p>
                            <div style=""width:240px; margin: auto;"">
                                <img src=""images/map23_PuBu_scaleDef_orientMir_000.png"" style= ""width:200px""alt=""img"">
                            </div>
                        </div>",0.165,"",0,"",NA,"","images/map23_PuBu_scaleDef_orientMir_000.png","angry",1,23,23,"PuBu","orientMir","scaleDef","000",NA,NA
"","","","","","html-slider-response",159,916714,"0.0-153.0","4swuc5lwq7",24,NA,"<div style=""width:500px;"">
                            <p style=""font-size:50px; font-weight:bold;""
                            >angry</p>
                            <div style=""width:240px; margin: auto;"">
                                <img src=""images/map02_RdYlBu_scaleDef_orientDef_180.png"" style= ""width:200px""alt=""img"">
                            </div>
                        </div>",0.765,"",0,"",NA,"","images/map02_RdYlBu_scaleDef_orientDef_180.png","angry",1,2,2,"RdYlBu","orientDef","scaleDef","180",NA,NA
"","","","","","html-slider-response",160,920424,"0.0-154.0","4swuc5lwq7",24,NA,"<div style=""width:500px;"">
                            <p style=""font-size:50px; font-weight:bold;""
                            >angry</p>
                            <div style=""width:240px; margin: auto;"">
                                <img src=""images/map10_magma_scaleDef_orientMir_180.png"" style= ""width:200px""alt=""img"">
                            </div>
                        </div>",0.2475,"",0,"",NA,"","images/map10_magma_scaleDef_orientMir_180.png","angry",1,10,10,"magma","orientMir","scaleDef","180",NA,NA
"","","","","","html-slider-response",161,950992,"0.0-155.0","4swuc5lwq7",24,NA,"<div style=""width:500px;"">
                            <p style=""font-size:50px; font-weight:bold;""
                            >angry</p>
                            <div style=""width:240px; margin: auto;"">
                                <img src=""images/map02_RdYlBu_scaleRev_orientDef_270.png"" style= ""width:200px""alt=""img"">
                            </div>
                        </div>",0.6575,"",0,"",NA,"","images/map02_RdYlBu_scaleRev_orientDef_270.png","angry",1,2,2,"RdYlBu","orientDef","scaleRev","270",NA,NA
"","","","","","html-slider-response",162,953351,"0.0-156.0","4swuc5lwq7",24,NA,"<div style=""width:500px;"">
                            <p style=""font-size:50px; font-weight:bold;""
                            >angry</p>
                            <div style=""width:240px; margin: auto;"">
                                <img src=""images/map10_inferno_scaleRev_orientMir_090.png"" style= ""width:200px""alt=""img"">
                            </div>
                        </div>",0.335,"",0,"",NA,"","images/map10_inferno_scaleRev_orientMir_090.png","angry",1,10,10,"inferno","orientMir","scaleRev","090",NA,NA
"","","","","","html-slider-response",163,956020,"0.0-157.0","4swuc5lwq7",24,NA,"<div style=""width:500px;"">
