"success","timeout","failed_images","failed_audio","failed_video","trial_type","trial_index","time_elapsed","internal_node_id","subject_id","condition_num","rt","stimulus","response","question_order","slider_start","practiceTrial","practiceTrialNum","correct","image_path","concept","repetition","map_id","map_num","scale_name","orientation_code","mapping_code","rotation_code","ishihara_plate","correct_response"
"true","false","[]","[]","[]","preload",0,1133,"0.0-0.0","1wvcpk8ffo",28,NA,"",NA,"",NA,"",NA,"","","",NA,NA,NA,"","","","",NA,NA
"","","","","","html-button-response",1,15756,"0.0-1.0","1wvcpk8ffo",28,14621,"Welcome to our experiment!<p>At the bottom of this screen, you will see a button that says ""Begin Experiment"".<br>Please only click that button when you are ready to complete the 30 minute experiment in one sitting.</p><p> Once you click that button, it will not be possible to restart the experiment.",0.5,"",NA,"",NA,"","","",NA,NA,NA,"","","","",NA,NA
"true","","","","","fullscreen",2,19157,"0.0-2.0","1wvcpk8ffo",28,2398,"",NA,"",NA,"",NA,"","","",NA,NA,NA,"","","","",NA,NA
"","","","","","survey-multi-select",3,106022,"0.0-3.0","1wvcpk8ffo",28,86862,"",NA,"[0]",NA,"",NA,"","","",NA,NA,NA,"","","","",NA,NA
"","","","","","html-button-response",4,109619,"0.0-4.0","1wvcpk8ffo",28,3596,"Welcome! <p> This experiment involves two parts: demographic information, followed by the experimental task.<p> It will take about 30 minutes to complete both parts.",0.5,"",NA,"",NA,"","","",NA,NA,NA,"","","","",NA,NA
"","","","","","survey-text",5,125421,"0.0-5.0","1wvcpk8ffo",28,15792,"",NA,"",NA,"",NA,"","","",NA,NA,NA,"","","","",NA,NA
"","","","","","html-slider-response",6,185734,"0.0-6.0","1wvcpk8ffo",28,60311,"<div style='text-align:left; font-size:20px; line-height:25px; width: 1000px;'>
                                During this experiment you will be asked to rate how much you associate maps with                    different concepts.<br> Below, you can see some examples of the maps you will be asked to rate. Above the maps
                    is the list of concepts.<br>You will be asked                    to rate how much you associate each map with each concept on a scale from 'not at all' to 'very much' like the
                    one below. <br><br>
                    Now, please look at the list of concepts and maps. For each concept, think about the map you associate 'very
                    much' with the concept.<br>                     When you see that map during the experiment, please rate it near the 'very much' endpoint of the
                    scale.<br>Now, please think about which map you associate 'not at all'                     with each concept. When you see that map during the experiment, please rate it near the 'not at all' endpoint
                    of the scale.<br>
                    Please use the full range of the scale. That is, if a map is somewhat associated with the concept, you would
                    click partway between the middle point and right side of the scale.                    You will be asked to rate each map for a given concept before moving on to the next concept.<br>Press the
                    'Continue' button for instructions on how to use the slider.                    <br>
                </div>

                <div style=""width: 500px; margin: 0 auto;"">
                    <!-- Centered text paragraphs -->
                    <div style=""text-align: center; width: 500px;"">
                        <p style=""font-size:25px; line-height:15px;"">
                            fearful&nbsp;&nbsp;&nbsp;&nbsp;
                            sad&nbsp;&nbsp;&nbsp;&nbsp;
                            angry&nbsp;&nbsp;&nbsp;&nbsp;
                            disgust&nbsp;&nbsp;&nbsp;&nbsp;
                            happy
                        </p>
                        <!-- <p style=""font-size:20px; line-height:15px;"">sad</p>
                        <p style=""font-size:20px;line-height:15px;"">angry</p>
                        <p style=""font-size:20px;line-height:15px;"">disgust</p>
                        <p style=""font-size:20px;line-height:15px;"">happy</p> -->
                    </div>
            

                    <!-- Grid section -->
                   <div style=""display: flex; justify-content: center; padding-top: 15px;"">
                    <div style=""display: grid; grid-template-columns: repeat(10, 55px); grid-gap: 5px; width: auto;"">
                        <img src=""images/map13_Purples_scaleDef_orientDef_000.png"" alt=""map"" style=""width: 100%;""><img src=""images/map02_RdGy_scaleDef_orientDef_180.png"" alt=""map"" style=""width: 100%;""><img src=""images/map07_seismic_scaleDef_orientDef_000.png"" alt=""map"" style=""width: 100%;""><img src=""images/map12_Greys_scaleRev_orientMir_270.png"" alt=""map"" style=""width: 100%;""><img src=""images/map05_bwr_scaleDef_orientMir_180.png"" alt=""map"" style=""width: 100%;""><img src=""images/map10_viridis_scaleRev_orientMir_090.png"" alt=""map"" style=""width: 100%;""><img src=""images/map05_coolwarm_scaleDef_orientMir_000.png"" alt=""map"" style=""width: 100%;""><img src=""images/map27_PiYG_scaleRev_orientDef_270.png"" alt=""map"" style=""width: 100%;""><img src=""images/map15_Reds_scaleRev_orientDef_090.png"" alt=""map"" style=""width: 100%;""><img src=""images/map05_RdYlGn_scaleRev_orientDef_090.png"" alt=""map"" style=""width: 100%;""><img src=""images/map12_magma_scaleDef_orientDef_180.png"" alt=""map"" style=""width: 100%;""><img src=""images/map15_YlOrBr_scaleDef_orientDef_180.png"" alt=""map"" style=""width: 100%;""><img src=""images/map02_RdYlBu_scaleDef_orientMir_180.png"" alt=""map"" style=""width: 100%;""><img src=""images/map10_turbo_scaleDef_orientDef_180.png"" alt=""map"" style=""width: 100%;""><img src=""images/map05_Spectral_scaleDef_orientDef_180.png"" alt=""map"" style=""width: 100%;""><img src=""images/map26_PuBu_scaleDef_orientDef_000.png"" alt=""map"" style=""width: 100%;""><img src=""images/map26_BuGn_scaleDef_orientMir_180.png"" alt=""map"" style=""width: 100%;""><img src=""images/map10_gist_earth_scaleDef_orientDef_000.png"" alt=""map"" style=""width: 100%;""><img src=""images/map23_PuRd_scaleDef_orientDef_000.png"" alt=""map"" style=""width: 100%;""><img src=""images/map26_YlGnBu_scaleDef_orientDef_180.png"" alt=""map"" style=""width: 100%;""><img src=""images/map27_YlGn_scaleDef_orientDef_000.png"" alt=""map"" style=""width: 100%;""><img src=""images/map07_vanimo_scaleDef_orientMir_180.png"" alt=""map"" style=""width: 100%;""><img src=""images/map10_plasma_scaleDef_orientMir_180.png"" alt=""map"" style=""width: 100%;""><img src=""images/map15_OrRd_scaleDef_orientMir_180.png"" alt=""map"" style=""width: 100%;""><img src=""images/map12_cividis_scaleRev_orientMir_090.png"" alt=""map"" style=""width: 100%;""><img src=""images/map02_RdBu_scaleDef_orientMir_000.png"" alt=""map"" style=""width: 100%;""><img src=""images/map13_Oranges_scaleDef_orientMir_180.png"" alt=""map"" style=""width: 100%;""><img src=""images/map13_Greens_scaleDef_orientMir_000.png"" alt=""map"" style=""width: 100%;""><img src=""images/map26_PuBuGn_scaleDef_orientMir_000.png"" alt=""map"" style=""width: 100%;""><img src=""images/map13_Blues_scaleDef_orientDef_180.png"" alt=""map"" style=""width: 100%;""><img src=""images/map07_managua_scaleRev_orientMir_090.png"" alt=""map"" style=""width: 100%;""><img src=""images/map07_berlin_scaleRev_orientDef_270.png"" alt=""map"" style=""width: 100%;""><img src=""images/map23_RdPu_scaleRev_orientDef_270.png"" alt=""map"" style=""width: 100%;""><img src=""images/map12_inferno_scaleDef_orientDef_000.png"" alt=""map"" style=""width: 100%;""><img src=""images/map02_PuOr_scaleRev_orientDef_090.png"" alt=""map"" style=""width: 100%;""><img src=""images/map23_BuPu_scaleDef_orientMir_000.png"" alt=""map"" style=""width: 100%;""><img src=""images/map27_BrBG_scaleRev_orientMir_270.png"" alt=""map"" style=""width: 100%;""><img src=""images/map23_GnBu_scaleDef_orientMir_180.png"" alt=""map"" style=""width: 100%;""><img src=""images/map15_YlOrRd_scaleDef_orientMir_000.png"" alt=""map"" style=""width: 100%;""><img src=""images/map27_PRGn_scaleDef_orientMir_000.png"" alt=""map"" style=""width: 100%;"">
                    </div>
                </div>

                    <!-- Clear floats -->
                    <div style=""clear: both;""></div>
                </div>
                            ",NA,"",0,"true",NA,"","","",NA,NA,NA,"","","","",NA,NA
"","","","","","html-button-response",7,189184,"0.0-7.0","1wvcpk8ffo",28,3449,"<div style=""width:800px;""><p style=""text-align:left"">To move the slider, click and drag your cursor to the location of the scale where you would like to make your rating and then let go. When you let go of the slider, your response will be recorded and the next trial will begin. <br>
                    We are interested in your initial impressions of each map for the given concept, so please go with your first intuition. <br>
                    Before you begin the experiment, there will be four training trials for you to practice using the scale. <br>
                     When you are ready to start the training trials, please click ""Continue"".</p><br></div>",0.5,"",NA,"",NA,"","","",NA,NA,NA,"","","","",NA,NA
"","","","","","html-slider-response",8,193829,"0.0-8.0-0.0","1wvcpk8ffo",28,NA,"<div style=""width:500px;"">
                                    <p style=""font-size:25px;"">Please move the slider all the way to the <br> right endpoint of the scale</p>

                                    </div>
                                </div>",1,"",0,"true",0,"true","","",NA,NA,NA,"","","","",NA,NA
"","","","","","html-button-response",9,195685,"0.0-8.0-1.0","1wvcpk8ffo",28,1352,"<p align='center'><b>Good job!</b> Click on 'Continue' to proceed.</p>",0.5,"",NA,"",NA,"","","",NA,NA,NA,"","","","",NA,NA
"","","","","","html-slider-response",10,198195,"0.0-9.0-0.0","1wvcpk8ffo",28,NA,"<div style=""width:500px;"">
                                    <p style=""font-size:25px;"">Please move the slider all the way to the <br> left endpoint of the scale</p>

                                    </div>
                                </div>",0,"",0,"true",1,"true","","",NA,NA,NA,"","","","",NA,NA
"","","","","","html-button-response",11,199734,"0.0-9.0-1.0","1wvcpk8ffo",28,1036,"<p align='center'><b>Good job!</b> Click on 'Continue' to proceed.</p>",0.5,"",NA,"",NA,"","","",NA,NA,NA,"","","","",NA,NA
"","","","","","html-slider-response",12,204445,"0.0-10.0-0.0","1wvcpk8ffo",28,NA,"<div style=""width:500px;"">
                                    <p style=""font-size:25px;"">Please move the slider halfway between the center and right endpoint of the scale</p>

                                    </div>
                                </div>",0.7475,"",0,"true",2,"true","","",NA,NA,NA,"","","","",NA,NA
"","","","","","html-button-response",13,205967,"0.0-10.0-1.0","1wvcpk8ffo",28,1018,"<p align='center'><b>Good job!</b> Click on 'Continue' to proceed.</p>",0.5,"",NA,"",NA,"","","",NA,NA,NA,"","","","",NA,NA
"","","","","","html-slider-response",14,209628,"0.0-11.0-0.0","1wvcpk8ffo",28,NA,"<div style=""width:500px;"">
                                    <p style=""font-size:25px;"">Please move the slider halfway between the center and left endpoint of the scale</p>

                                    </div>
                                </div>",0.245,"",0,"true",3,"true","","",NA,NA,NA,"","","","",NA,NA
"","","","","","html-button-response",15,211250,"0.0-11.0-1.0","1wvcpk8ffo",28,1119,"<p align='center'><b>Good job!</b> Click on 'Continue' to proceed.</p>",0.5,"",NA,"",NA,"","","",NA,NA,NA,"","","","",NA,NA
"","","","","","html-button-response",16,213583,"0.0-12.0","1wvcpk8ffo",28,2332,"<p>Great job! You've completed the practice trials. Now you will begin the main task.</p>",0.5,"",NA,"",NA,"","","",NA,NA,NA,"","","","",NA,NA
"","","","","","html-button-response",17,222350,"0.0-13.0","1wvcpk8ffo",28,8766,"<p>In this block of trials, you will be asked to rate how much you associate each map with:</p > <p style = 'font-size:150%; font-weight: bold'>fearful</p><br></br>",0.5,"",NA,"",NA,"","","",NA,NA,NA,"","","","",NA,NA
"","","","","","html-slider-response",18,225977,"0.0-14.0","1wvcpk8ffo",28,NA,"<div style=""width:500px;"">
                            <p style=""font-size:50px; font-weight:bold;""
                            >fearful</p>
                            <div style=""width:240px; margin: auto;"">
                                <img src=""images/map15_OrRd_scaleDef_orientMir_180.png"" style= ""width:200px""alt=""img"">
                            </div>
                        </div>",0.5975,"",0,"",NA,"","images/map15_OrRd_scaleDef_orientMir_180.png","fearful",1,15,15,"OrRd","orientMir","scaleDef","180",NA,NA
"","","","","","html-slider-response",19,229062,"0.0-15.0","1wvcpk8ffo",28,NA,"<div style=""width:500px;"">
                            <p style=""font-size:50px; font-weight:bold;""
                            >fearful</p>
                            <div style=""width:240px; margin: auto;"">
                                <img src=""images/map02_RdYlBu_scaleDef_orientMir_180.png"" style= ""width:200px""alt=""img"">
                            </div>
                        </div>",0.535,"",0,"",NA,"","images/map02_RdYlBu_scaleDef_orientMir_180.png","fearful",1,2,2,"RdYlBu","orientMir","scaleDef","180",NA,NA
"","","","","","html-slider-response",20,231829,"0.0-16.0","1wvcpk8ffo",28,NA,"<div style=""width:500px;"">
                            <p style=""font-size:50px; font-weight:bold;""
                            >fearful</p>
                            <div style=""width:240px; margin: auto;"">
                                <img src=""images/map10_gist_earth_scaleDef_orientDef_000.png"" style= ""width:200px""alt=""img"">
                            </div>
                        </div>",0.38,"",0,"",NA,"","images/map10_gist_earth_scaleDef_orientDef_000.png","fearful",1,10,10,"gist","scaleDef","earth","orientDef",NA,NA
"","","","","","html-slider-response",21,234262,"0.0-17.0","1wvcpk8ffo",28,NA,"<div style=""width:500px;"">
                            <p style=""font-size:50px; font-weight:bold;""
                            >fearful</p>
                            <div style=""width:240px; margin: auto;"">
                                <img src=""images/map12_cividis_scaleDef_orientMir_000.png"" style= ""width:200px""alt=""img"">
                            </div>
                        </div>",0.56,"",0,"",NA,"","images/map12_cividis_scaleDef_orientMir_000.png","fearful",1,12,12,"cividis","orientMir","scaleDef","000",NA,NA
"","","","","","html-slider-response",22,237327,"0.0-18.0","1wvcpk8ffo",28,NA,"<div style=""width:500px;"">
                            <p style=""font-size:50px; font-weight:bold;""
                            >fearful</p>
                            <div style=""width:240px; margin: auto;"">
                                <img src=""images/map23_RdPu_scaleRev_orientDef_270.png"" style= ""width:200px""alt=""img"">
                            </div>
                        </div>",0.73,"",0,"",NA,"","images/map23_RdPu_scaleRev_orientDef_270.png","fearful",1,23,23,"RdPu","orientDef","scaleRev","270",NA,NA
"","","","","","html-slider-response",23,240628,"0.0-19.0","1wvcpk8ffo",28,NA,"<div style=""width:500px;"">
                            <p style=""font-size:50px; font-weight:bold;""
                            >fearful</p>
                            <div style=""width:240px; margin: auto;"">
                                <img src=""images/map05_RdYlGn_scaleRev_orientDef_090.png"" style= ""width:200px""alt=""img"">
                            </div>
                        </div>",0.545,"",0,"",NA,"","images/map05_RdYlGn_scaleRev_orientDef_090.png","fearful",1,5,5,"RdYlGn","orientDef","scaleRev","090",NA,NA
"","","","","","html-slider-response",24,242960,"0.0-20.0","1wvcpk8ffo",28,NA,"<div style=""width:500px;"">
                            <p style=""font-size:50px; font-weight:bold;""
                            >fearful</p>
                            <div style=""width:240px; margin: auto;"">
                                <img src=""images/map05_Spectral_scaleDef_orientDef_180.png"" style= ""width:200px""alt=""img"">
                            </div>
                        </div>",0.555,"",0,"",NA,"","images/map05_Spectral_scaleDef_orientDef_180.png","fearful",1,5,5,"Spectral","orientDef","scaleDef","180",NA,NA
"","","","","","html-slider-response",25,245611,"0.0-21.0","1wvcpk8ffo",28,NA,"<div style=""width:500px;"">
                            <p style=""font-size:50px; font-weight:bold;""
                            >fearful</p>
                            <div style=""width:240px; margin: auto;"">
                                <img src=""images/map10_turbo_scaleRev_orientDef_270.png"" style= ""width:200px""alt=""img"">
                            </div>
                        </div>",0.515,"",0,"",NA,"","images/map10_turbo_scaleRev_orientDef_270.png","fearful",1,10,10,"turbo","orientDef","scaleRev","270",NA,NA
"","","","","","html-slider-response",26,247960,"0.0-22.0","1wvcpk8ffo",28,NA,"<div style=""width:500px;"">
                            <p style=""font-size:50px; font-weight:bold;""
                            >fearful</p>
                            <div style=""width:240px; margin: auto;"">
                                <img src=""images/map27_YlGn_scaleDef_orientDef_000.png"" style= ""width:200px""alt=""img"">
                            </div>
                        </div>",0.32,"",0,"",NA,"","images/map27_YlGn_scaleDef_orientDef_000.png","fearful",1,27,27,"YlGn","orientDef","scaleDef","000",NA,NA
"","","","","","html-slider-response",27,251060,"0.0-23.0","1wvcpk8ffo",28,NA,"<div style=""width:500px;"">
                            <p style=""font-size:50px; font-weight:bold;""
                            >fearful</p>
                            <div style=""width:240px; margin: auto;"">
                                <img src=""images/map02_RdBu_scaleDef_orientMir_000.png"" style= ""width:200px""alt=""img"">
                            </div>
                        </div>",0.46,"",0,"",NA,"","images/map02_RdBu_scaleDef_orientMir_000.png","fearful",1,2,2,"RdBu","orientMir","scaleDef","000",NA,NA
"","","","","","html-slider-response",28,253077,"0.0-24.0","1wvcpk8ffo",28,NA,"<div style=""width:500px;"">
                            <p style=""font-size:50px; font-weight:bold;""
                            >fearful</p>
                            <div style=""width:240px; margin: auto;"">
                                <img src=""images/map26_PuBu_scaleDef_orientDef_000.png"" style= ""width:200px""alt=""img"">
                            </div>
                        </div>",0.2575,"",0,"",NA,"","images/map26_PuBu_scaleDef_orientDef_000.png","fearful",1,26,26,"PuBu","orientDef","scaleDef","000",NA,NA
"","","","","","html-slider-response",29,255843,"0.0-25.0","1wvcpk8ffo",28,NA,"<div style=""width:500px;"">
                            <p style=""font-size:50px; font-weight:bold;""
                            >fearful</p>
                            <div style=""width:240px; margin: auto;"">
                                <img src=""images/map27_YlGn_scaleRev_orientDef_090.png"" style= ""width:200px""alt=""img"">
                            </div>
                        </div>",0.33,"",0,"",NA,"","images/map27_YlGn_scaleRev_orientDef_090.png","fearful",1,27,27,"YlGn","orientDef","scaleRev","090",NA,NA
"","","","","","html-slider-response",30,259193,"0.0-26.0","1wvcpk8ffo",28,NA,"<div style=""width:500px;"">
                            <p style=""font-size:50px; font-weight:bold;""
                            >fearful</p>
                            <div style=""width:240px; margin: auto;"">
                                <img src=""images/map23_BuPu_scaleDef_orientMir_000.png"" style= ""width:200px""alt=""img"">
                            </div>
                        </div>",0.56,"",0,"",NA,"","images/map23_BuPu_scaleDef_orientMir_000.png","fearful",1,23,23,"BuPu","orientMir","scaleDef","000",NA,NA
"","","","","","html-slider-response",31,261226,"0.0-27.0","1wvcpk8ffo",28,NA,"<div style=""width:500px;"">
                            <p style=""font-size:50px; font-weight:bold;""
                            >fearful</p>
                            <div style=""width:240px; margin: auto;"">
                                <img src=""images/map10_plasma_scaleRev_orientMir_270.png"" style= ""width:200px""alt=""img"">
                            </div>
                        </div>",0.5175,"",0,"",NA,"","images/map10_plasma_scaleRev_orientMir_270.png","fearful",1,10,10,"plasma","orientMir","scaleRev","270",NA,NA
"","","","","","html-slider-response",32,263776,"0.0-28.0","1wvcpk8ffo",28,NA,"<div style=""width:500px;"">
                            <p style=""font-size:50px; font-weight:bold;""
                            >fearful</p>
                            <div style=""width:240px; margin: auto;"">
                                <img src=""images/map07_vanimo_scaleRev_orientMir_270.png"" style= ""width:200px""alt=""img"">
                            </div>
                        </div>",0.65,"",0,"",NA,"","images/map07_vanimo_scaleRev_orientMir_270.png","fearful",1,7,7,"vanimo","orientMir","scaleRev","270",NA,NA
"","","","","","html-slider-response",33,266009,"0.0-29.0","1wvcpk8ffo",28,NA,"<div style=""width:500px;"">
                            <p style=""font-size:50px; font-weight:bold;""
                            >fearful</p>
                            <div style=""width:240px; margin: auto;"">
                                <img src=""images/map15_Reds_scaleRev_orientDef_090.png"" style= ""width:200px""alt=""img"">
                            </div>
                        </div>",0.6825,"",0,"",NA,"","images/map15_Reds_scaleRev_orientDef_090.png","fearful",1,15,15,"Reds","orientDef","scaleRev","090",NA,NA
"","","","","","html-slider-response",34,268292,"0.0-30.0","1wvcpk8ffo",28,NA,"<div style=""width:500px;"">
                            <p style=""font-size:50px; font-weight:bold;""
                            >fearful</p>
                            <div style=""width:240px; margin: auto;"">
                                <img src=""images/map26_YlGnBu_scaleRev_orientDef_270.png"" style= ""width:200px""alt=""img"">
                            </div>
                        </div>",0.3175,"",0,"",NA,"","images/map26_YlGnBu_scaleRev_orientDef_270.png","fearful",1,26,26,"YlGnBu","orientDef","scaleRev","270",NA,NA
"","","","","","html-slider-response",35,270691,"0.0-31.0","1wvcpk8ffo",28,NA,"<div style=""width:500px;"">
                            <p style=""font-size:50px; font-weight:bold;""
                            >fearful</p>
                            <div style=""width:240px; margin: auto;"">
                                <img src=""images/map02_PuOr_scaleDef_orientDef_000.png"" style= ""width:200px""alt=""img"">
                            </div>
                        </div>",0.3175,"",0,"",NA,"","images/map02_PuOr_scaleDef_orientDef_000.png","fearful",1,2,2,"PuOr","orientDef","scaleDef","000",NA,NA
"","","","","","html-slider-response",36,272708,"0.0-32.0","1wvcpk8ffo",28,NA,"<div style=""width:500px;"">
                            <p style=""font-size:50px; font-weight:bold;""
                            >fearful</p>
                            <div style=""width:240px; margin: auto;"">
                                <img src=""images/map05_coolwarm_scaleRev_orientMir_090.png"" style= ""width:200px""alt=""img"">
                            </div>
                        </div>",0.4625,"",0,"",NA,"","images/map05_coolwarm_scaleRev_orientMir_090.png","fearful",1,5,5,"coolwarm","orientMir","scaleRev","090",NA,NA
"","","","","","html-slider-response",37,274892,"0.0-33.0","1wvcpk8ffo",28,NA,"<div style=""width:500px;"">
                            <p style=""font-size:50px; font-weight:bold;""
                            >fearful</p>
                            <div style=""width:240px; margin: auto;"">
                                <img src=""images/map07_managua_scaleRev_orientMir_090.png"" style= ""width:200px""alt=""img"">
                            </div>
                        </div>",0.48,"",0,"",NA,"","images/map07_managua_scaleRev_orientMir_090.png","fearful",1,7,7,"managua","orientMir","scaleRev","090",NA,NA
"","","","","","html-slider-response",38,277010,"0.0-34.0","1wvcpk8ffo",28,NA,"<div style=""width:500px;"">
                            <p style=""font-size:50px; font-weight:bold;""
                            >fearful</p>
                            <div style=""width:240px; margin: auto;"">
                                <img src=""images/map26_BuGn_scaleRev_orientMir_270.png"" style= ""width:200px""alt=""img"">
                            </div>
                        </div>",0.465,"",0,"",NA,"","images/map26_BuGn_scaleRev_orientMir_270.png","fearful",1,26,26,"BuGn","orientMir","scaleRev","270",NA,NA
"","","","","","html-slider-response",39,279909,"0.0-35.0","1wvcpk8ffo",28,NA,"<div style=""width:500px;"">
                            <p style=""font-size:50px; font-weight:bold;""
                            >fearful</p>
                            <div style=""width:240px; margin: auto;"">
                                <img src=""images/map07_managua_scaleDef_orientMir_000.png"" style= ""width:200px""alt=""img"">
                            </div>
                        </div>",0.375,"",0,"",NA,"","images/map07_managua_scaleDef_orientMir_000.png","fearful",1,7,7,"managua","orientMir","scaleDef","000",NA,NA
"","","","","","html-slider-response",40,283944,"0.0-36.0","1wvcpk8ffo",28,NA,"<div style=""width:500px;"">
                            <p style=""font-size:50px; font-weight:bold;""
                            >fearful</p>
                            <div style=""width:240px; margin: auto;"">
                                <img src=""images/map15_Reds_scaleDef_orientDef_000.png"" style= ""width:200px""alt=""img"">
                            </div>
                        </div>",0.6325,"",0,"",NA,"","images/map15_Reds_scaleDef_orientDef_000.png","fearful",1,15,15,"Reds","orientDef","scaleDef","000",NA,NA
"","","","","","html-slider-response",41,286409,"0.0-37.0","1wvcpk8ffo",28,NA,"<div style=""width:500px;"">
                            <p style=""font-size:50px; font-weight:bold;""
                            >fearful</p>
                            <div style=""width:240px; margin: auto;"">
                                <img src=""images/map05_RdYlGn_scaleDef_orientDef_000.png"" style= ""width:200px""alt=""img"">
                            </div>
                        </div>",0.23,"",0,"",NA,"","images/map05_RdYlGn_scaleDef_orientDef_000.png","fearful",1,5,5,"RdYlGn","orientDef","scaleDef","000",NA,NA
"","","","","","html-slider-response",42,288875,"0.0-38.0","1wvcpk8ffo",28,NA,"<div style=""width:500px;"">
                            <p style=""font-size:50px; font-weight:bold;""
                            >fearful</p>
                            <div style=""width:240px; margin: auto;"">
                                <img src=""images/map23_RdPu_scaleDef_orientDef_180.png"" style= ""width:200px""alt=""img"">
                            </div>
                        </div>",0.545,"",0,"",NA,"","images/map23_RdPu_scaleDef_orientDef_180.png","fearful",1,23,23,"RdPu","orientDef","scaleDef","180",NA,NA
"","","","","","html-slider-response",43,290825,"0.0-39.0","1wvcpk8ffo",28,NA,"<div style=""width:500px;"">
                            <p style=""font-size:50px; font-weight:bold;""
                            >fearful</p>
                            <div style=""width:240px; margin: auto;"">
                                <img src=""images/map26_PuBuGn_scaleDef_orientMir_000.png"" style= ""width:200px""alt=""img"">
                            </div>
                        </div>",0.2375,"",0,"",NA,"","images/map26_PuBuGn_scaleDef_orientMir_000.png","fearful",1,26,26,"PuBuGn","orientMir","scaleDef","000",NA,NA
"","","","","","html-slider-response",44,293025,"0.0-40.0","1wvcpk8ffo",28,NA,"<div style=""width:500px;"">
                            <p style=""font-size:50px; font-weight:bold;""
                            >fearful</p>
                            <div style=""width:240px; margin: auto;"">
                                <img src=""images/map13_Blues_scaleDef_orientDef_180.png"" style= ""width:200px""alt=""img"">
                            </div>
                        </div>",0.0325,"",0,"",NA,"","images/map13_Blues_scaleDef_orientDef_180.png","fearful",1,13,13,"Blues","orientDef","scaleDef","180",NA,NA
"","","","","","html-slider-response",45,295159,"0.0-41.0","1wvcpk8ffo",28,NA,"<div style=""width:500px;"">
                            <p style=""font-size:50px; font-weight:bold;""
                            >fearful</p>
                            <div style=""width:240px; margin: auto;"">
                                <img src=""images/map23_PuRd_scaleDef_orientDef_000.png"" style= ""width:200px""alt=""img"">
                            </div>
                        </div>",0.45,"",0,"",NA,"","images/map23_PuRd_scaleDef_orientDef_000.png","fearful",1,23,23,"PuRd","orientDef","scaleDef","000",NA,NA
"","","","","","html-slider-response",46,300793,"0.0-42.0","1wvcpk8ffo",28,NA,"<div style=""width:500px;"">
                            <p style=""font-size:50px; font-weight:bold;""
                            >fearful</p>
                            <div style=""width:240px; margin: auto;"">
                                <img src=""images/map12_magma_scaleRev_orientDef_270.png"" style= ""width:200px""alt=""img"">
                            </div>
                        </div>",0.745,"",0,"",NA,"","images/map12_magma_scaleRev_orientDef_270.png","fearful",1,12,12,"magma","orientDef","scaleRev","270",NA,NA
"","","","","","html-slider-response",47,303125,"0.0-43.0","1wvcpk8ffo",28,NA,"<div style=""width:500px;"">
                            <p style=""font-size:50px; font-weight:bold;""
                            >fearful</p>
                            <div style=""width:240px; margin: auto;"">
                                <img src=""images/map27_PRGn_scaleRev_orientMir_090.png"" style= ""width:200px""alt=""img"">
                            </div>
                        </div>",0.38,"",0,"",NA,"","images/map27_PRGn_scaleRev_orientMir_090.png","fearful",1,27,27,"PRGn","orientMir","scaleRev","090",NA,NA
"","","","","","html-slider-response",48,306659,"0.0-44.0","1wvcpk8ffo",28,NA,"<div style=""width:500px;"">
                            <p style=""font-size:50px; font-weight:bold;""
                            >fearful</p>
                            <div style=""width:240px; margin: auto;"">
                                <img src=""images/map13_Purples_scaleDef_orientDef_000.png"" style= ""width:200px""alt=""img"">
                            </div>
                        </div>",0.425,"",0,"",NA,"","images/map13_Purples_scaleDef_orientDef_000.png","fearful",1,13,13,"Purples","orientDef","scaleDef","000",NA,NA
"","","","","","html-slider-response",49,308960,"0.0-45.0","1wvcpk8ffo",28,NA,"<div style=""width:500px;"">
                            <p style=""font-size:50px; font-weight:bold;""
                            >fearful</p>
                            <div style=""width:240px; margin: auto;"">
                                <img src=""images/map15_YlOrRd_scaleDef_orientMir_000.png"" style= ""width:200px""alt=""img"">
                            </div>
                        </div>",0.7575,"",0,"",NA,"","images/map15_YlOrRd_scaleDef_orientMir_000.png","fearful",1,15,15,"YlOrRd","orientMir","scaleDef","000",NA,NA
"","","","","","html-slider-response",50,310958,"0.0-46.0","1wvcpk8ffo",28,NA,"<div style=""width:500px;"">
                            <p style=""font-size:50px; font-weight:bold;""
                            >fearful</p>
                            <div style=""width:240px; margin: auto;"">
                                <img src=""images/map12_cividis_scaleRev_orientMir_090.png"" style= ""width:200px""alt=""img"">
                            </div>
                        </div>",0.435,"",0,"",NA,"","images/map12_cividis_scaleRev_orientMir_090.png","fearful",1,12,12,"cividis","orientMir","scaleRev","090",NA,NA
"","","","","","html-slider-response",51,313143,"0.0-47.0","1wvcpk8ffo",28,NA,"<div style=""width:500px;"">
                            <p style=""font-size:50px; font-weight:bold;""
                            >fearful</p>
                            <div style=""width:240px; margin: auto;"">
                                <img src=""images/map02_RdGy_scaleDef_orientDef_180.png"" style= ""width:200px""alt=""img"">
                            </div>
                        </div>",0.59,"",0,"",NA,"","images/map02_RdGy_scaleDef_orientDef_180.png","fearful",1,2,2,"RdGy","orientDef","scaleDef","180",NA,NA
"","","","","","html-slider-response",52,316192,"0.0-48.0","1wvcpk8ffo",28,NA,"<div style=""width:500px;"">
                            <p style=""font-size:50px; font-weight:bold;""
                            >fearful</p>
                            <div style=""width:240px; margin: auto;"">
                                <img src=""images/map10_viridis_scaleRev_orientMir_090.png"" style= ""width:200px""alt=""img"">
                            </div>
                        </div>",0.205,"",0,"",NA,"","images/map10_viridis_scaleRev_orientMir_090.png","fearful",1,10,10,"viridis","orientMir","scaleRev","090",NA,NA
"","","","","","html-slider-response",53,318791,"0.0-49.0","1wvcpk8ffo",28,NA,"<div style=""width:500px;"">
                            <p style=""font-size:50px; font-weight:bold;""
                            >fearful</p>
                            <div style=""width:240px; margin: auto;"">
                                <img src=""images/map12_magma_scaleDef_orientDef_180.png"" style= ""width:200px""alt=""img"">
                            </div>
                        </div>",0.715,"",0,"",NA,"","images/map12_magma_scaleDef_orientDef_180.png","fearful",1,12,12,"magma","orientDef","scaleDef","180",NA,NA
"","","","","","html-slider-response",54,321145,"0.0-50.0","1wvcpk8ffo",28,NA,"<div style=""width:500px;"">
                            <p style=""font-size:50px; font-weight:bold;""
                            >fearful</p>
                            <div style=""width:240px; margin: auto;"">
                                <img src=""images/map23_PuRd_scaleRev_orientDef_090.png"" style= ""width:200px""alt=""img"">
                            </div>
                        </div>",0.305,"",0,"",NA,"","images/map23_PuRd_scaleRev_orientDef_090.png","fearful",1,23,23,"PuRd","orientDef","scaleRev","090",NA,NA
"","","","","","html-slider-response",55,323990,"0.0-51.0","1wvcpk8ffo",28,NA,"<div style=""width:500px;"">
                            <p style=""font-size:50px; font-weight:bold;""
                            >fearful</p>
                            <div style=""width:240px; margin: auto;"">
                                <img src=""images/map26_PuBu_scaleRev_orientDef_090.png"" style= ""width:200px""alt=""img"">
                            </div>
                        </div>",0.185,"",0,"",NA,"","images/map26_PuBu_scaleRev_orientDef_090.png","fearful",1,26,26,"PuBu","orientDef","scaleRev","090",NA,NA
"","","","","","html-slider-response",56,326393,"0.0-52.0","1wvcpk8ffo",28,NA,"<div style=""width:500px;"">
                            <p style=""font-size:50px; font-weight:bold;""
                            >fearful</p>
                            <div style=""width:240px; margin: auto;"">
                                <img src=""images/map26_BuGn_scaleDef_orientMir_180.png"" style= ""width:200px""alt=""img"">
                            </div>
                        </div>",0.37,"",0,"",NA,"","images/map26_BuGn_scaleDef_orientMir_180.png","fearful",1,26,26,"BuGn","orientMir","scaleDef","180",NA,NA
"","","","","","html-slider-response",57,328491,"0.0-53.0","1wvcpk8ffo",28,NA,"<div style=""width:500px;"">
                            <p style=""font-size:50px; font-weight:bold;""
                            >fearful</p>
                            <div style=""width:240px; margin: auto;"">
                                <img src=""images/map02_PuOr_scaleRev_orientDef_090.png"" style= ""width:200px""alt=""img"">
                            </div>
                        </div>",0.465,"",0,"",NA,"","images/map02_PuOr_scaleRev_orientDef_090.png","fearful",1,2,2,"PuOr","orientDef","scaleRev","090",NA,NA
"","","","","","html-button-response",58,400311,"0.0-54.0","1wvcpk8ffo",28,71320,"<p>You are doing great!<br></br> You are halway done with the current block. When you are ready to continue, click the 'Continue' button.</p>",0.5,"",NA,"",NA,"","","",NA,NA,NA,"","","","",NA,NA
"","","","","","html-slider-response",59,405057,"0.0-55.0","1wvcpk8ffo",28,NA,"<div style=""width:500px;"">
                            <p style=""font-size:50px; font-weight:bold;""
                            >fearful</p>
                            <div style=""width:240px; margin: auto;"">
                                <img src=""images/map07_vanimo_scaleDef_orientMir_180.png"" style= ""width:200px""alt=""img"">
                            </div>
                        </div>",0.4525,"",0,"",NA,"","images/map07_vanimo_scaleDef_orientMir_180.png","fearful",1,7,7,"vanimo","orientMir","scaleDef","180",NA,NA
"","","","","","html-slider-response",60,407190,"0.0-56.0","1wvcpk8ffo",28,NA,"<div style=""width:500px;"">
                            <p style=""font-size:50px; font-weight:bold;""
                            >fearful</p>
                            <div style=""width:240px; margin: auto;"">
                                <img src=""images/map13_Greens_scaleRev_orientMir_090.png"" style= ""width:200px""alt=""img"">
                            </div>
                        </div>",0.285,"",0,"",NA,"","images/map13_Greens_scaleRev_orientMir_090.png","fearful",1,13,13,"Greens","orientMir","scaleRev","090",NA,NA
"","","","","","html-slider-response",61,410590,"0.0-57.0","1wvcpk8ffo",28,NA,"<div style=""width:500px;"">
                            <p style=""font-size:50px; font-weight:bold;""
                            >fearful</p>
                            <div style=""width:240px; margin: auto;"">
                                <img src=""images/map05_bwr_scaleDef_orientMir_180.png"" style= ""width:200px""alt=""img"">
                            </div>
                        </div>",0.47,"",0,"",NA,"","images/map05_bwr_scaleDef_orientMir_180.png","fearful",1,5,5,"bwr","orientMir","scaleDef","180",NA,NA
"","","","","","html-slider-response",62,412522,"0.0-58.0","1wvcpk8ffo",28,NA,"<div style=""width:500px;"">
                            <p style=""font-size:50px; font-weight:bold;""
                            >fearful</p>
                            <div style=""width:240px; margin: auto;"">
                                <img src=""images/map07_seismic_scaleRev_orientDef_090.png"" style= ""width:200px""alt=""img"">
                            </div>
                        </div>",0.5125,"",0,"",NA,"","images/map07_seismic_scaleRev_orientDef_090.png","fearful",1,7,7,"seismic","orientDef","scaleRev","090",NA,NA
"","","","","","html-slider-response",63,415489,"0.0-59.0","1wvcpk8ffo",28,NA,"<div style=""width:500px;"">
                            <p style=""font-size:50px; font-weight:bold;""
                            >fearful</p>
                            <div style=""width:240px; margin: auto;"">
                                <img src=""images/map15_YlOrRd_scaleRev_orientMir_090.png"" style= ""width:200px""alt=""img"">
                            </div>
                        </div>",0.7675,"",0,"",NA,"","images/map15_YlOrRd_scaleRev_orientMir_090.png","fearful",1,15,15,"YlOrRd","orientMir","scaleRev","090",NA,NA
"","","","","","html-slider-response",64,417540,"0.0-60.0","1wvcpk8ffo",28,NA,"<div style=""width:500px;"">
                            <p style=""font-size:50px; font-weight:bold;""
                            >fearful</p>
                            <div style=""width:240px; margin: auto;"">
                                <img src=""images/map02_RdYlBu_scaleRev_orientMir_270.png"" style= ""width:200px""alt=""img"">
                            </div>
                        </div>",0.5825,"",0,"",NA,"","images/map02_RdYlBu_scaleRev_orientMir_270.png","fearful",1,2,2,"RdYlBu","orientMir","scaleRev","270",NA,NA
"","","","","","html-slider-response",65,419506,"0.0-61.0","1wvcpk8ffo",28,NA,"<div style=""width:500px;"">
                            <p style=""font-size:50px; font-weight:bold;""
                            >fearful</p>
                            <div style=""width:240px; margin: auto;"">
                                <img src=""images/map15_OrRd_scaleRev_orientMir_270.png"" style= ""width:200px""alt=""img"">
                            </div>
                        </div>",0.5975,"",0,"",NA,"","images/map15_OrRd_scaleRev_orientMir_270.png","fearful",1,15,15,"OrRd","orientMir","scaleRev","270",NA,NA
"","","","","","html-slider-response",66,422024,"0.0-62.0","1wvcpk8ffo",28,NA,"<div style=""width:500px;"">
                            <p style=""font-size:50px; font-weight:bold;""
                            >fearful</p>
                            <div style=""width:240px; margin: auto;"">
                                <img src=""images/map07_seismic_scaleDef_orientDef_000.png"" style= ""width:200px""alt=""img"">
                            </div>
                        </div>",0.3825,"",0,"",NA,"","images/map07_seismic_scaleDef_orientDef_000.png","fearful",1,7,7,"seismic","orientDef","scaleDef","000",NA,NA
"","","","","","html-slider-response",67,424305,"0.0-63.0","1wvcpk8ffo",28,NA,"<div style=""width:500px;"">
                            <p style=""font-size:50px; font-weight:bold;""
                            >fearful</p>
                            <div style=""width:240px; margin: auto;"">
                                <img src=""images/map23_GnBu_scaleDef_orientMir_180.png"" style= ""width:200px""alt=""img"">
                            </div>
                        </div>",0.175,"",0,"",NA,"","images/map23_GnBu_scaleDef_orientMir_180.png","fearful",1,23,23,"GnBu","orientMir","scaleDef","180",NA,NA
"","","","","","html-slider-response",68,426706,"0.0-64.0","1wvcpk8ffo",28,NA,"<div style=""width:500px;"">
                            <p style=""font-size:50px; font-weight:bold;""
                            >fearful</p>
                            <div style=""width:240px; margin: auto;"">
                                <img src=""images/map13_Purples_scaleRev_orientDef_090.png"" style= ""width:200px""alt=""img"">
                            </div>
                        </div>",0.475,"",0,"",NA,"","images/map13_Purples_scaleRev_orientDef_090.png","fearful",1,13,13,"Purples","orientDef","scaleRev","090",NA,NA
"","","","","","html-slider-response",69,430705,"0.0-65.0","1wvcpk8ffo",28,NA,"<div style=""width:500px;"">
                            <p style=""font-size:50px; font-weight:bold;""
                            >fearful</p>
                            <div style=""width:240px; margin: auto;"">
                                <img src=""images/map10_turbo_scaleDef_orientDef_180.png"" style= ""width:200px""alt=""img"">
                            </div>
                        </div>",0.4075,"",0,"",NA,"","images/map10_turbo_scaleDef_orientDef_180.png","fearful",1,10,10,"turbo","orientDef","scaleDef","180",NA,NA
"","","","","","html-slider-response",70,432672,"0.0-66.0","1wvcpk8ffo",28,NA,"<div style=""width:500px;"">
                            <p style=""font-size:50px; font-weight:bold;""
                            >fearful</p>
                            <div style=""width:240px; margin: auto;"">
                                <img src=""images/map02_RdBu_scaleRev_orientMir_090.png"" style= ""width:200px""alt=""img"">
                            </div>
                        </div>",0.5275,"",0,"",NA,"","images/map02_RdBu_scaleRev_orientMir_090.png","fearful",1,2,2,"RdBu","orientMir","scaleRev","090",NA,NA
"","","","","","html-slider-response",71,434339,"0.0-67.0","1wvcpk8ffo",28,NA,"<div style=""width:500px;"">
                            <p style=""font-size:50px; font-weight:bold;""
                            >fearful</p>
                            <div style=""width:240px; margin: auto;"">
                                <img src=""images/map05_coolwarm_scaleDef_orientMir_000.png"" style= ""width:200px""alt=""img"">
                            </div>
                        </div>",0.52,"",0,"",NA,"","images/map05_coolwarm_scaleDef_orientMir_000.png","fearful",1,5,5,"coolwarm","orientMir","scaleDef","000",NA,NA
"","","","","","html-slider-response",72,437056,"0.0-68.0","1wvcpk8ffo",28,NA,"<div style=""width:500px;"">
                            <p style=""font-size:50px; font-weight:bold;""
                            >fearful</p>
                            <div style=""width:240px; margin: auto;"">
                                <img src=""images/map12_inferno_scaleDef_orientDef_000.png"" style= ""width:200px""alt=""img"">
                            </div>
                        </div>",0.6875,"",0,"",NA,"","images/map12_inferno_scaleDef_orientDef_000.png","fearful",1,12,12,"inferno","orientDef","scaleDef","000",NA,NA
"","","","","","html-slider-response",73,440022,"0.0-69.0","1wvcpk8ffo",28,NA,"<div style=""width:500px;"">
                            <p style=""font-size:50px; font-weight:bold;""
                            >fearful</p>
                            <div style=""width:240px; margin: auto;"">
                                <img src=""images/map05_Spectral_scaleRev_orientDef_270.png"" style= ""width:200px""alt=""img"">
                            </div>
                        </div>",0.505,"",0,"",NA,"","images/map05_Spectral_scaleRev_orientDef_270.png","fearful",1,5,5,"Spectral","orientDef","scaleRev","270",NA,NA
"","","","","","html-slider-response",74,442157,"0.0-70.0","1wvcpk8ffo",28,NA,"<div style=""width:500px;"">
                            <p style=""font-size:50px; font-weight:bold;""
                            >fearful</p>
                            <div style=""width:240px; margin: auto;"">
                                <img src=""images/map10_gist_earth_scaleRev_orientDef_090.png"" style= ""width:200px""alt=""img"">
                            </div>
                        </div>",0.3325,"",0,"",NA,"","images/map10_gist_earth_scaleRev_orientDef_090.png","fearful",1,10,10,"gist","scaleRev","earth","orientDef",NA,NA
"","","","","","html-slider-response",75,444455,"0.0-71.0","1wvcpk8ffo",28,NA,"<div style=""width:500px;"">
                            <p style=""font-size:50px; font-weight:bold;""
                            >fearful</p>
                            <div style=""width:240px; margin: auto;"">
                                <img src=""images/map15_YlOrBr_scaleDef_orientDef_180.png"" style= ""width:200px""alt=""img"">
                            </div>
                        </div>",0.5975,"",0,"",NA,"","images/map15_YlOrBr_scaleDef_orientDef_180.png","fearful",1,15,15,"YlOrBr","orientDef","scaleDef","180",NA,NA
"","","","","","html-slider-response",76,446905,"0.0-72.0","1wvcpk8ffo",28,NA,"<div style=""width:500px;"">
                            <p style=""font-size:50px; font-weight:bold;""
                            >fearful</p>
                            <div style=""width:240px; margin: auto;"">
                                <img src=""images/map12_inferno_scaleRev_orientDef_090.png"" style= ""width:200px""alt=""img"">
                            </div>
                        </div>",0.725,"",0,"",NA,"","images/map12_inferno_scaleRev_orientDef_090.png","fearful",1,12,12,"inferno","orientDef","scaleRev","090",NA,NA
"","","","","","html-slider-response",77,449174,"0.0-73.0","1wvcpk8ffo",28,NA,"<div style=""width:500px;"">
                            <p style=""font-size:50px; font-weight:bold;""
                            >fearful</p>
                            <div style=""width:240px; margin: auto;"">
                                <img src=""images/map26_YlGnBu_scaleDef_orientDef_180.png"" style= ""width:200px""alt=""img"">
                            </div>
                        </div>",0.2475,"",0,"",NA,"","images/map26_YlGnBu_scaleDef_orientDef_180.png","fearful",1,26,26,"YlGnBu","orientDef","scaleDef","180",NA,NA
"","","","","","html-slider-response",78,452156,"0.0-74.0","1wvcpk8ffo",28,NA,"<div style=""width:500px;"">
                            <p style=""font-size:50px; font-weight:bold;""
                            >fearful</p>
                            <div style=""width:240px; margin: auto;"">
                                <img src=""images/map15_YlOrBr_scaleRev_orientDef_270.png"" style= ""width:200px""alt=""img"">
                            </div>
                        </div>",0.5675,"",0,"",NA,"","images/map15_YlOrBr_scaleRev_orientDef_270.png","fearful",1,15,15,"YlOrBr","orientDef","scaleRev","270",NA,NA
"","","","","","html-slider-response",79,454939,"0.0-75.0","1wvcpk8ffo",28,NA,"<div style=""width:500px;"">
                            <p style=""font-size:50px; font-weight:bold;""
                            >fearful</p>
                            <div style=""width:240px; margin: auto;"">
                                <img src=""images/map02_RdGy_scaleRev_orientDef_270.png"" style= ""width:200px""alt=""img"">
                            </div>
                        </div>",0.645,"",0,"",NA,"","images/map02_RdGy_scaleRev_orientDef_270.png","fearful",1,2,2,"RdGy","orientDef","scaleRev","270",NA,NA
"","","","","","html-slider-response",80,457589,"0.0-76.0","1wvcpk8ffo",28,NA,"<div style=""width:500px;"">
                            <p style=""font-size:50px; font-weight:bold;""
                            >fearful</p>
                            <div style=""width:240px; margin: auto;"">
                                <img src=""images/map05_bwr_scaleRev_orientMir_270.png"" style= ""width:200px""alt=""img"">
                            </div>
                        </div>",0.4425,"",0,"",NA,"","images/map05_bwr_scaleRev_orientMir_270.png","fearful",1,5,5,"bwr","orientMir","scaleRev","270",NA,NA
"","","","","","html-slider-response",81,460139,"0.0-77.0","1wvcpk8ffo",28,NA,"<div style=""width:500px;"">
                            <p style=""font-size:50px; font-weight:bold;""
                            >fearful</p>
                            <div style=""width:240px; margin: auto;"">
                                <img src=""images/map27_BrBG_scaleRev_orientMir_270.png"" style= ""width:200px""alt=""img"">
                            </div>
                        </div>",0.535,"",0,"",NA,"","images/map27_BrBG_scaleRev_orientMir_270.png","fearful",1,27,27,"BrBG","orientMir","scaleRev","270",NA,NA
"","","","","","html-slider-response",82,462304,"0.0-78.0","1wvcpk8ffo",28,NA,"<div style=""width:500px;"">
                            <p style=""font-size:50px; font-weight:bold;""
                            >fearful</p>
                            <div style=""width:240px; margin: auto;"">
                                <img src=""images/map23_GnBu_scaleRev_orientMir_270.png"" style= ""width:200px""alt=""img"">
                            </div>
                        </div>",0.0925,"",0,"",NA,"","images/map23_GnBu_scaleRev_orientMir_270.png","fearful",1,23,23,"GnBu","orientMir","scaleRev","270",NA,NA
"","","","","","html-slider-response",83,464837,"0.0-79.0","1wvcpk8ffo",28,NA,"<div style=""width:500px;"">
                            <p style=""font-size:50px; font-weight:bold;""
                            >fearful</p>
                            <div style=""width:240px; margin: auto;"">
                                <img src=""images/map27_PRGn_scaleDef_orientMir_000.png"" style= ""width:200px""alt=""img"">
                            </div>
                        </div>",0.475,"",0,"",NA,"","images/map27_PRGn_scaleDef_orientMir_000.png","fearful",1,27,27,"PRGn","orientMir","scaleDef","000",NA,NA
"","","","","","html-slider-response",84,468073,"0.0-80.0","1wvcpk8ffo",28,NA,"<div style=""width:500px;"">
                            <p style=""font-size:50px; font-weight:bold;""
                            >fearful</p>
                            <div style=""width:240px; margin: auto;"">
                                <img src=""images/map12_Greys_scaleRev_orientMir_270.png"" style= ""width:200px""alt=""img"">
                            </div>
                        </div>",0.355,"",0,"",NA,"","images/map12_Greys_scaleRev_orientMir_270.png","fearful",1,12,12,"Greys","orientMir","scaleRev","270",NA,NA
"","","","","","html-slider-response",85,470403,"0.0-81.0","1wvcpk8ffo",28,NA,"<div style=""width:500px;"">
                            <p style=""font-size:50px; font-weight:bold;""
                            >fearful</p>
                            <div style=""width:240px; margin: auto;"">
                                <img src=""images/map07_berlin_scaleRev_orientDef_270.png"" style= ""width:200px""alt=""img"">
                            </div>
                        </div>",0.255,"",0,"",NA,"","images/map07_berlin_scaleRev_orientDef_270.png","fearful",1,7,7,"berlin","orientDef","scaleRev","270",NA,NA
"","","","","","html-slider-response",86,472337,"0.0-82.0","1wvcpk8ffo",28,NA,"<div style=""width:500px;"">
                            <p style=""font-size:50px; font-weight:bold;""
                            >fearful</p>
                            <div style=""width:240px; margin: auto;"">
                                <img src=""images/map27_BrBG_scaleDef_orientMir_180.png"" style= ""width:200px""alt=""img"">
                            </div>
                        </div>",0.4625,"",0,"",NA,"","images/map27_BrBG_scaleDef_orientMir_180.png","fearful",1,27,27,"BrBG","orientMir","scaleDef","180",NA,NA
"","","","","","html-slider-response",87,475721,"0.0-83.0","1wvcpk8ffo",28,NA,"<div style=""width:500px;"">
                            <p style=""font-size:50px; font-weight:bold;""
                            >fearful</p>
                            <div style=""width:240px; margin: auto;"">
                                <img src=""images/map27_PiYG_scaleDef_orientDef_180.png"" style= ""width:200px""alt=""img"">
                            </div>
                        </div>",0.4625,"",0,"",NA,"","images/map27_PiYG_scaleDef_orientDef_180.png","fearful",1,27,27,"PiYG","orientDef","scaleDef","180",NA,NA
"","","","","","html-slider-response",88,478221,"0.0-84.0","1wvcpk8ffo",28,NA,"<div style=""width:500px;"">
                            <p style=""font-size:50px; font-weight:bold;""
                            >fearful</p>
                            <div style=""width:240px; margin: auto;"">
                                <img src=""images/map26_PuBuGn_scaleRev_orientMir_090.png"" style= ""width:200px""alt=""img"">
                            </div>
                        </div>",0.2325,"",0,"",NA,"","images/map26_PuBuGn_scaleRev_orientMir_090.png","fearful",1,26,26,"PuBuGn","orientMir","scaleRev","090",NA,NA
"","","","","","html-slider-response",89,480138,"0.0-85.0","1wvcpk8ffo",28,NA,"<div style=""width:500px;"">
                            <p style=""font-size:50px; font-weight:bold;""
                            >fearful</p>
                            <div style=""width:240px; margin: auto;"">
                                <img src=""images/map12_Greys_scaleDef_orientMir_180.png"" style= ""width:200px""alt=""img"">
                            </div>
                        </div>",0.5325,"",0,"",NA,"","images/map12_Greys_scaleDef_orientMir_180.png","fearful",1,12,12,"Greys","orientMir","scaleDef","180",NA,NA
"","","","","","html-slider-response",90,482706,"0.0-86.0","1wvcpk8ffo",28,NA,"<div style=""width:500px;"">
                            <p style=""font-size:50px; font-weight:bold;""
                            >fearful</p>
                            <div style=""width:240px; margin: auto;"">
                                <img src=""images/map13_Oranges_scaleDef_orientMir_180.png"" style= ""width:200px""alt=""img"">
                            </div>
                        </div>",0.7425,"",0,"",NA,"","images/map13_Oranges_scaleDef_orientMir_180.png","fearful",1,13,13,"Oranges","orientMir","scaleDef","180",NA,NA
"","","","","","html-slider-response",91,484671,"0.0-87.0","1wvcpk8ffo",28,NA,"<div style=""width:500px;"">
                            <p style=""font-size:50px; font-weight:bold;""
                            >fearful</p>
                            <div style=""width:240px; margin: auto;"">
                                <img src=""images/map10_plasma_scaleDef_orientMir_180.png"" style= ""width:200px""alt=""img"">
                            </div>
                        </div>",0.63,"",0,"",NA,"","images/map10_plasma_scaleDef_orientMir_180.png","fearful",1,10,10,"plasma","orientMir","scaleDef","180",NA,NA
"","","","","","html-slider-response",92,487773,"0.0-88.0","1wvcpk8ffo",28,NA,"<div style=""width:500px;"">
                            <p style=""font-size:50px; font-weight:bold;""
                            >fearful</p>
                            <div style=""width:240px; margin: auto;"">
                                <img src=""images/map10_viridis_scaleDef_orientMir_000.png"" style= ""width:200px""alt=""img"">
                            </div>
                        </div>",0.1925,"",0,"",NA,"","images/map10_viridis_scaleDef_orientMir_000.png","fearful",1,10,10,"viridis","orientMir","scaleDef","000",NA,NA
"","","","","","html-slider-response",93,490670,"0.0-89.0","1wvcpk8ffo",28,NA,"<div style=""width:500px;"">
                            <p style=""font-size:50px; font-weight:bold;""
                            >fearful</p>
                            <div style=""width:240px; margin: auto;"">
                                <img src=""images/map13_Oranges_scaleRev_orientMir_270.png"" style= ""width:200px""alt=""img"">
                            </div>
                        </div>",0.73,"",0,"",NA,"","images/map13_Oranges_scaleRev_orientMir_270.png","fearful",1,13,13,"Oranges","orientMir","scaleRev","270",NA,NA
"","","","","","html-slider-response",94,493187,"0.0-90.0","1wvcpk8ffo",28,NA,"<div style=""width:500px;"">
                            <p style=""font-size:50px; font-weight:bold;""
                            >fearful</p>
                            <div style=""width:240px; margin: auto;"">
                                <img src=""images/map13_Greens_scaleDef_orientMir_000.png"" style= ""width:200px""alt=""img"">
                            </div>
                        </div>",0.2875,"",0,"",NA,"","images/map13_Greens_scaleDef_orientMir_000.png","fearful",1,13,13,"Greens","orientMir","scaleDef","000",NA,NA
"","","","","","html-slider-response",95,494838,"0.0-91.0","1wvcpk8ffo",28,NA,"<div style=""width:500px;"">
                            <p style=""font-size:50px; font-weight:bold;""
                            >fearful</p>
                            <div style=""width:240px; margin: auto;"">
                                <img src=""images/map23_BuPu_scaleRev_orientMir_090.png"" style= ""width:200px""alt=""img"">
                            </div>
                        </div>",0.525,"",0,"",NA,"","images/map23_BuPu_scaleRev_orientMir_090.png","fearful",1,23,23,"BuPu","orientMir","scaleRev","090",NA,NA
"","","","","","html-slider-response",96,497919,"0.0-92.0","1wvcpk8ffo",28,NA,"<div style=""width:500px;"">
                            <p style=""font-size:50px; font-weight:bold;""
                            >fearful</p>
                            <div style=""width:240px; margin: auto;"">
                                <img src=""images/map07_berlin_scaleDef_orientDef_180.png"" style= ""width:200px""alt=""img"">
                            </div>
                        </div>",0.61,"",0,"",NA,"","images/map07_berlin_scaleDef_orientDef_180.png","fearful",1,7,7,"berlin","orientDef","scaleDef","180",NA,NA
"","","","","","html-slider-response",97,499987,"0.0-93.0","1wvcpk8ffo",28,NA,"<div style=""width:500px;"">
                            <p style=""font-size:50px; font-weight:bold;""
                            >fearful</p>
                            <div style=""width:240px; margin: auto;"">
                                <img src=""images/map27_PiYG_scaleRev_orientDef_270.png"" style= ""width:200px""alt=""img"">
                            </div>
                        </div>",0.355,"",0,"",NA,"","images/map27_PiYG_scaleRev_orientDef_270.png","fearful",1,27,27,"PiYG","orientDef","scaleRev","270",NA,NA
"","","","","","html-slider-response",98,502270,"0.0-94.0","1wvcpk8ffo",28,NA,"<div style=""width:500px;"">
                            <p style=""font-size:50px; font-weight:bold;""
                            >fearful</p>
                            <div style=""width:240px; margin: auto;"">
                                <img src=""images/map13_Blues_scaleRev_orientDef_270.png"" style= ""width:200px""alt=""img"">
                            </div>
                        </div>",0.11,"",0,"",NA,"","images/map13_Blues_scaleRev_orientDef_270.png","fearful",1,13,13,"Blues","orientDef","scaleRev","270",NA,NA
"","","","","","html-button-response",99,506692,"0.0-95.0","1wvcpk8ffo",28,3919,"<p>Great Job! You've finished block 1.<br></br> You have 4 block(s) left to go.<br></br></p>",0.5,"",NA,"",NA,"","","",NA,NA,NA,"","","","",NA,NA
"","","","","","html-button-response",100,536940,"0.0-96.0","1wvcpk8ffo",28,30248,"<p>In this block of trials, you will be asked to rate how much you associate each map with:</p > <p style = 'font-size:150%; font-weight: bold'>sad</p><br></br>",0.5,"",NA,"",NA,"","","",NA,NA,NA,"","","","",NA,NA
"","","","","","html-slider-response",101,556418,"0.0-97.0","1wvcpk8ffo",28,NA,"<div style=""width:500px;"">
                            <p style=""font-size:50px; font-weight:bold;""
                            >sad</p>
                            <div style=""width:240px; margin: auto;"">
                                <img src=""images/map10_turbo_scaleRev_orientDef_270.png"" style= ""width:200px""alt=""img"">
                            </div>
                        </div>",0.37,"",0,"",NA,"","images/map10_turbo_scaleRev_orientDef_270.png","sad",1,10,10,"turbo","orientDef","scaleRev","270",NA,NA
"","","","","","html-slider-response",102,561519,"0.0-98.0","1wvcpk8ffo",28,NA,"<div style=""width:500px;"">
                            <p style=""font-size:50px; font-weight:bold;""
                            >sad</p>
                            <div style=""width:240px; margin: auto;"">
                                <img src=""images/map02_RdYlBu_scaleRev_orientMir_270.png"" style= ""width:200px""alt=""img"">
                            </div>
                        </div>",0.515,"",0,"",NA,"","images/map02_RdYlBu_scaleRev_orientMir_270.png","sad",1,2,2,"RdYlBu","orientMir","scaleRev","270",NA,NA
"","","","","","html-slider-response",103,565754,"0.0-99.0","1wvcpk8ffo",28,NA,"<div style=""width:500px;"">
                            <p style=""font-size:50px; font-weight:bold;""
                            >sad</p>
                            <div style=""width:240px; margin: auto;"">
                                <img src=""images/map10_plasma_scaleRev_orientMir_270.png"" style= ""width:200px""alt=""img"">
                            </div>
                        </div>",0.4225,"",0,"",NA,"","images/map10_plasma_scaleRev_orientMir_270.png","sad",1,10,10,"plasma","orientMir","scaleRev","270",NA,NA
"","","","","","html-slider-response",104,568351,"0.0-100.0","1wvcpk8ffo",28,NA,"<div style=""width:500px;"">
                            <p style=""font-size:50px; font-weight:bold;""
                            >sad</p>
                            <div style=""width:240px; margin: auto;"">
                                <img src=""images/map07_seismic_scaleRev_orientDef_090.png"" style= ""width:200px""alt=""img"">
                            </div>
                        </div>",0.3475,"",0,"",NA,"","images/map07_seismic_scaleRev_orientDef_090.png","sad",1,7,7,"seismic","orientDef","scaleRev","090",NA,NA
"","","","","","html-slider-response",105,571052,"0.0-101.0","1wvcpk8ffo",28,NA,"<div style=""width:500px;"">
                            <p style=""font-size:50px; font-weight:bold;""
                            >sad</p>
                            <div style=""width:240px; margin: auto;"">
                                <img src=""images/map26_YlGnBu_scaleRev_orientDef_270.png"" style= ""width:200px""alt=""img"">
                            </div>
                        </div>",0.0675,"",0,"",NA,"","images/map26_YlGnBu_scaleRev_orientDef_270.png","sad",1,26,26,"YlGnBu","orientDef","scaleRev","270",NA,NA
"","","","","","html-slider-response",106,574884,"0.0-102.0","1wvcpk8ffo",28,NA,"<div style=""width:500px;"">
                            <p style=""font-size:50px; font-weight:bold;""
                            >sad</p>
                            <div style=""width:240px; margin: auto;"">
                                <img src=""images/map15_OrRd_scaleDef_orientMir_180.png"" style= ""width:200px""alt=""img"">
                            </div>
                        </div>",0.485,"",0,"",NA,"","images/map15_OrRd_scaleDef_orientMir_180.png","sad",1,15,15,"OrRd","orientMir","scaleDef","180",NA,NA
"","","","","","html-slider-response",107,576469,"0.0-103.0","1wvcpk8ffo",28,NA,"<div style=""width:500px;"">
                            <p style=""font-size:50px; font-weight:bold;""
                            >sad</p>
                            <div style=""width:240px; margin: auto;"">
                                <img src=""images/map26_BuGn_scaleRev_orientMir_270.png"" style= ""width:200px""alt=""img"">
                            </div>
                        </div>",0.455,"",0,"",NA,"","images/map26_BuGn_scaleRev_orientMir_270.png","sad",1,26,26,"BuGn","orientMir","scaleRev","270",NA,NA
"","","","","","html-slider-response",108,578170,"0.0-104.0","1wvcpk8ffo",28,NA,"<div style=""width:500px;"">
                            <p style=""font-size:50px; font-weight:bold;""
                            >sad</p>
                            <div style=""width:240px; margin: auto;"">
                                <img src=""images/map13_Oranges_scaleRev_orientMir_270.png"" style= ""width:200px""alt=""img"">
                            </div>
                        </div>",0.475,"",0,"",NA,"","images/map13_Oranges_scaleRev_orientMir_270.png","sad",1,13,13,"Oranges","orientMir","scaleRev","270",NA,NA
"","","","","","html-slider-response",109,580034,"0.0-105.0","1wvcpk8ffo",28,NA,"<div style=""width:500px;"">
                            <p style=""font-size:50px; font-weight:bold;""
                            >sad</p>
                            <div style=""width:240px; margin: auto;"">
                                <img src=""images/map02_RdBu_scaleDef_orientMir_000.png"" style= ""width:200px""alt=""img"">
                            </div>
                        </div>",0.3875,"",0,"",NA,"","images/map02_RdBu_scaleDef_orientMir_000.png","sad",1,2,2,"RdBu","orientMir","scaleDef","000",NA,NA
"","","","","","html-slider-response",110,581935,"0.0-106.0","1wvcpk8ffo",28,NA,"<div style=""width:500px;"">
                            <p style=""font-size:50px; font-weight:bold;""
                            >sad</p>
                            <div style=""width:240px; margin: auto;"">
                                <img src=""images/map27_PiYG_scaleRev_orientDef_270.png"" style= ""width:200px""alt=""img"">
                            </div>
                        </div>",0.4275,"",0,"",NA,"","images/map27_PiYG_scaleRev_orientDef_270.png","sad",1,27,27,"PiYG","orientDef","scaleRev","270",NA,NA
"","","","","","html-slider-response",111,584618,"0.0-107.0","1wvcpk8ffo",28,NA,"<div style=""width:500px;"">
                            <p style=""font-size:50px; font-weight:bold;""
                            >sad</p>
                            <div style=""width:240px; margin: auto;"">
                                <img src=""images/map12_cividis_scaleDef_orientMir_000.png"" style= ""width:200px""alt=""img"">
                            </div>
                        </div>",0.235,"",0,"",NA,"","images/map12_cividis_scaleDef_orientMir_000.png","sad",1,12,12,"cividis","orientMir","scaleDef","000",NA,NA
"","","","","","html-slider-response",112,586636,"0.0-108.0","1wvcpk8ffo",28,NA,"<div style=""width:500px;"">
                            <p style=""font-size:50px; font-weight:bold;""
                            >sad</p>
                            <div style=""width:240px; margin: auto;"">
                                <img src=""images/map13_Greens_scaleDef_orientMir_000.png"" style= ""width:200px""alt=""img"">
                            </div>
                        </div>",0.1175,"",0,"",NA,"","images/map13_Greens_scaleDef_orientMir_000.png","sad",1,13,13,"Greens","orientMir","scaleDef","000",NA,NA
"","","","","","html-slider-response",113,588636,"0.0-109.0","1wvcpk8ffo",28,NA,"<div style=""width:500px;"">
                            <p style=""font-size:50px; font-weight:bold;""
                            >sad</p>
                            <div style=""width:240px; margin: auto;"">
                                <img src=""images/map26_PuBu_scaleDef_orientDef_000.png"" style= ""width:200px""alt=""img"">
                            </div>
                        </div>",0.1725,"",0,"",NA,"","images/map26_PuBu_scaleDef_orientDef_000.png","sad",1,26,26,"PuBu","orientDef","scaleDef","000",NA,NA
"","","","","","html-slider-response",114,590502,"0.0-110.0","1wvcpk8ffo",28,NA,"<div style=""width:500px;"">
                            <p style=""font-size:50px; font-weight:bold;""
                            >sad</p>
                            <div style=""width:240px; margin: auto;"">
                                <img src=""images/map10_turbo_scaleDef_orientDef_180.png"" style= ""width:200px""alt=""img"">
                            </div>
                        </div>",0.385,"",0,"",NA,"","images/map10_turbo_scaleDef_orientDef_180.png","sad",1,10,10,"turbo","orientDef","scaleDef","180",NA,NA
"","","","","","html-slider-response",115,592185,"0.0-111.0","1wvcpk8ffo",28,NA,"<div style=""width:500px;"">
                            <p style=""font-size:50px; font-weight:bold;""
                            >sad</p>
                            <div style=""width:240px; margin: auto;"">
                                <img src=""images/map13_Greens_scaleRev_orientMir_090.png"" style= ""width:200px""alt=""img"">
                            </div>
                        </div>",0.255,"",0,"",NA,"","images/map13_Greens_scaleRev_orientMir_090.png","sad",1,13,13,"Greens","orientMir","scaleRev","090",NA,NA
"","","","","","html-slider-response",116,593967,"0.0-112.0","1wvcpk8ffo",28,NA,"<div style=""width:500px;"">
                            <p style=""font-size:50px; font-weight:bold;""
                            >sad</p>
                            <div style=""width:240px; margin: auto;"">
                                <img src=""images/map15_YlOrBr_scaleRev_orientDef_270.png"" style= ""width:200px""alt=""img"">
                            </div>
                        </div>",0.4625,"",0,"",NA,"","images/map15_YlOrBr_scaleRev_orientDef_270.png","sad",1,15,15,"YlOrBr","orientDef","scaleRev","270",NA,NA
"","","","","","html-slider-response",117,596585,"0.0-113.0","1wvcpk8ffo",28,NA,"<div style=""width:500px;"">
                            <p style=""font-size:50px; font-weight:bold;""
                            >sad</p>
                            <div style=""width:240px; margin: auto;"">
                                <img src=""images/map13_Purples_scaleRev_orientDef_090.png"" style= ""width:200px""alt=""img"">
                            </div>
                        </div>",0.4125,"",0,"",NA,"","images/map13_Purples_scaleRev_orientDef_090.png","sad",1,13,13,"Purples","orientDef","scaleRev","090",NA,NA
"","","","","","html-slider-response",118,598303,"0.0-114.0","1wvcpk8ffo",28,NA,"<div style=""width:500px;"">
                            <p style=""font-size:50px; font-weight:bold;""
                            >sad</p>
                            <div style=""width:240px; margin: auto;"">
                                <img src=""images/map10_gist_earth_scaleRev_orientDef_090.png"" style= ""width:200px""alt=""img"">
                            </div>
                        </div>",0.4,"",0,"",NA,"","images/map10_gist_earth_scaleRev_orientDef_090.png","sad",1,10,10,"gist","scaleRev","earth","orientDef",NA,NA
"","","","","","html-slider-response",119,600217,"0.0-115.0","1wvcpk8ffo",28,NA,"<div style=""width:500px;"">
                            <p style=""font-size:50px; font-weight:bold;""
                            >sad</p>
                            <div style=""width:240px; margin: auto;"">
                                <img src=""images/map12_magma_scaleRev_orientDef_270.png"" style= ""width:200px""alt=""img"">
                            </div>
                        </div>",0.275,"",0,"",NA,"","images/map12_magma_scaleRev_orientDef_270.png","sad",1,12,12,"magma","orientDef","scaleRev","270",NA,NA
"","","","","","html-slider-response",120,602884,"0.0-116.0","1wvcpk8ffo",28,NA,"<div style=""width:500px;"">
                            <p style=""font-size:50px; font-weight:bold;""
                            >sad</p>
                            <div style=""width:240px; margin: auto;"">
                                <img src=""images/map02_RdGy_scaleRev_orientDef_270.png"" style= ""width:200px""alt=""img"">
                            </div>
                        </div>",0.6375,"",0,"",NA,"","images/map02_RdGy_scaleRev_orientDef_270.png","sad",1,2,2,"RdGy","orientDef","scaleRev","270",NA,NA
"","","","","","html-slider-response",121,604986,"0.0-117.0","1wvcpk8ffo",28,NA,"<div style=""width:500px;"">
                            <p style=""font-size:50px; font-weight:bold;""
                            >sad</p>
                            <div style=""width:240px; margin: auto;"">
                                <img src=""images/map12_cividis_scaleRev_orientMir_090.png"" style= ""width:200px""alt=""img"">
                            </div>
                        </div>",0.3875,"",0,"",NA,"","images/map12_cividis_scaleRev_orientMir_090.png","sad",1,12,12,"cividis","orientMir","scaleRev","090",NA,NA
"","","","","","html-slider-response",122,606935,"0.0-118.0","1wvcpk8ffo",28,NA,"<div style=""width:500px;"">
                            <p style=""font-size:50px; font-weight:bold;""
                            >sad</p>
                            <div style=""width:240px; margin: auto;"">
                                <img src=""images/map10_viridis_scaleDef_orientMir_000.png"" style= ""width:200px""alt=""img"">
                            </div>
                        </div>",0.165,"",0,"",NA,"","images/map10_viridis_scaleDef_orientMir_000.png","sad",1,10,10,"viridis","orientMir","scaleDef","000",NA,NA
"","","","","","html-slider-response",123,608735,"0.0-119.0","1wvcpk8ffo",28,NA,"<div style=""width:500px;"">
                            <p style=""font-size:50px; font-weight:bold;""
                            >sad</p>
                            <div style=""width:240px; margin: auto;"">
                                <img src=""images/map05_Spectral_scaleDef_orientDef_180.png"" style= ""width:200px""alt=""img"">
                            </div>
                        </div>",0.465,"",0,"",NA,"","images/map05_Spectral_scaleDef_orientDef_180.png","sad",1,5,5,"Spectral","orientDef","scaleDef","180",NA,NA
"","","","","","html-slider-response",124,610534,"0.0-120.0","1wvcpk8ffo",28,NA,"<div style=""width:500px;"">
                            <p style=""font-size:50px; font-weight:bold;""
                            >sad</p>
                            <div style=""width:240px; margin: auto;"">
                                <img src=""images/map13_Blues_scaleRev_orientDef_270.png"" style= ""width:200px""alt=""img"">
                            </div>
                        </div>",0.12,"",0,"",NA,"","images/map13_Blues_scaleRev_orientDef_270.png","sad",1,13,13,"Blues","orientDef","scaleRev","270",NA,NA
"","","","","","html-slider-response",125,612418,"0.0-121.0","1wvcpk8ffo",28,NA,"<div style=""width:500px;"">
                            <p style=""font-size:50px; font-weight:bold;""
                            >sad</p>
                            <div style=""width:240px; margin: auto;"">
                                <img src=""images/map05_bwr_scaleDef_orientMir_180.png"" style= ""width:200px""alt=""img"">
                            </div>
                        </div>",0.2675,"",0,"",NA,"","images/map05_bwr_scaleDef_orientMir_180.png","sad",1,5,5,"bwr","orientMir","scaleDef","180",NA,NA
"","","","","","html-slider-response",126,614569,"0.0-122.0","1wvcpk8ffo",28,NA,"<div style=""width:500px;"">
                            <p style=""font-size:50px; font-weight:bold;""
                            >sad</p>
                            <div style=""width:240px; margin: auto;"">
                                <img src=""images/map27_BrBG_scaleDef_orientMir_180.png"" style= ""width:200px""alt=""img"">
                            </div>
                        </div>",0.045,"",0,"",NA,"","images/map27_BrBG_scaleDef_orientMir_180.png","sad",1,27,27,"BrBG","orientMir","scaleDef","180",NA,NA
"","","","","","html-slider-response",127,616701,"0.0-123.0","1wvcpk8ffo",28,NA,"<div style=""width:500px;"">
                            <p style=""font-size:50px; font-weight:bold;""
                            >sad</p>
                            <div style=""width:240px; margin: auto;"">
                                <img src=""images/map02_PuOr_scaleDef_orientDef_000.png"" style= ""width:200px""alt=""img"">
                            </div>
                        </div>",0.1725,"",0,"",NA,"","images/map02_PuOr_scaleDef_orientDef_000.png","sad",1,2,2,"PuOr","orientDef","scaleDef","000",NA,NA
"","","","","","html-slider-response",128,619117,"0.0-124.0","1wvcpk8ffo",28,NA,"<div style=""width:500px;"">
                            <p style=""font-size:50px; font-weight:bold;""
                            >sad</p>
                            <div style=""width:240px; margin: auto;"">
                                <img src=""images/map23_PuRd_scaleRev_orientDef_090.png"" style= ""width:200px""alt=""img"">
                            </div>
                        </div>",0,"",0,"",NA,"","images/map23_PuRd_scaleRev_orientDef_090.png","sad",1,23,23,"PuRd","orientDef","scaleRev","090",NA,NA
"","","","","","html-slider-response",129,621267,"0.0-125.0","1wvcpk8ffo",28,NA,"<div style=""width:500px;"">
                            <p style=""font-size:50px; font-weight:bold;""
                            >sad</p>
                            <div style=""width:240px; margin: auto;"">
                                <img src=""images/map13_Oranges_scaleDef_orientMir_180.png"" style= ""width:200px""alt=""img"">
                            </div>
                        </div>",0.385,"",0,"",NA,"","images/map13_Oranges_scaleDef_orientMir_180.png","sad",1,13,13,"Oranges","orientMir","scaleDef","180",NA,NA
"","","","","","html-slider-response",130,622933,"0.0-126.0","1wvcpk8ffo",28,NA,"<div style=""width:500px;"">
                            <p style=""font-size:50px; font-weight:bold;""
                            >sad</p>
                            <div style=""width:240px; margin: auto;"">
                                <img src=""images/map07_managua_scaleDef_orientMir_000.png"" style= ""width:200px""alt=""img"">
                            </div>
                        </div>",0.4625,"",0,"",NA,"","images/map07_managua_scaleDef_orientMir_000.png","sad",1,7,7,"managua","orientMir","scaleDef","000",NA,NA
"","","","","","html-slider-response",131,624633,"0.0-127.0","1wvcpk8ffo",28,NA,"<div style=""width:500px;"">
                            <p style=""font-size:50px; font-weight:bold;""
                            >sad</p>
                            <div style=""width:240px; margin: auto;"">
                                <img src=""images/map15_YlOrRd_scaleRev_orientMir_090.png"" style= ""width:200px""alt=""img"">
                            </div>
                        </div>",0.335,"",0,"",NA,"","images/map15_YlOrRd_scaleRev_orientMir_090.png","sad",1,15,15,"YlOrRd","orientMir","scaleRev","090",NA,NA
"","","","","","html-slider-response",132,628050,"0.0-128.0","1wvcpk8ffo",28,NA,"<div style=""width:500px;"">
                            <p style=""font-size:50px; font-weight:bold;""
                            >sad</p>
                            <div style=""width:240px; margin: auto;"">
                                <img src=""images/map07_vanimo_scaleRev_orientMir_270.png"" style= ""width:200px""alt=""img"">
                            </div>
                        </div>",0.6225,"",0,"",NA,"","images/map07_vanimo_scaleRev_orientMir_270.png","sad",1,7,7,"vanimo","orientMir","scaleRev","270",NA,NA
"","","","","","html-slider-response",133,629634,"0.0-129.0","1wvcpk8ffo",28,NA,"<div style=""width:500px;"">
                            <p style=""font-size:50px; font-weight:bold;""
                            >sad</p>
                            <div style=""width:240px; margin: auto;"">
                                <img src=""images/map27_PiYG_scaleDef_orientDef_180.png"" style= ""width:200px""alt=""img"">
                            </div>
                        </div>",0.47,"",0,"",NA,"","images/map27_PiYG_scaleDef_orientDef_180.png","sad",1,27,27,"PiYG","orientDef","scaleDef","180",NA,NA
"","","","","","html-slider-response",134,631265,"0.0-130.0","1wvcpk8ffo",28,NA,"<div style=""width:500px;"">
                            <p style=""font-size:50px; font-weight:bold;""
                            >sad</p>
                            <div style=""width:240px; margin: auto;"">
                                <img src=""images/map07_vanimo_scaleDef_orientMir_180.png"" style= ""width:200px""alt=""img"">
                            </div>
                        </div>",0.56,"",0,"",NA,"","images/map07_vanimo_scaleDef_orientMir_180.png","sad",1,7,7,"vanimo","orientMir","scaleDef","180",NA,NA
"","","","","","html-slider-response",135,632933,"0.0-131.0","1wvcpk8ffo",28,NA,"<div style=""width:500px;"">
                            <p style=""font-size:50px; font-weight:bold;""
                            >sad</p>
                            <div style=""width:240px; margin: auto;"">
                                <img src=""images/map23_RdPu_scaleRev_orientDef_270.png"" style= ""width:200px""alt=""img"">
                            </div>
                        </div>",0.2525,"",0,"",NA,"","images/map23_RdPu_scaleRev_orientDef_270.png","sad",1,23,23,"RdPu","orientDef","scaleRev","270",NA,NA
"","","","","","html-slider-response",136,634516,"0.0-132.0","1wvcpk8ffo",28,NA,"<div style=""width:500px;"">
                            <p style=""font-size:50px; font-weight:bold;""
                            >sad</p>
                            <div style=""width:240px; margin: auto;"">
                                <img src=""images/map02_RdBu_scaleRev_orientMir_090.png"" style= ""width:200px""alt=""img"">
                            </div>
                        </div>",0.425,"",0,"",NA,"","images/map02_RdBu_scaleRev_orientMir_090.png","sad",1,2,2,"RdBu","orientMir","scaleRev","090",NA,NA
"","","","","","html-slider-response",137,636033,"0.0-133.0","1wvcpk8ffo",28,NA,"<div style=""width:500px;"">
                            <p style=""font-size:50px; font-weight:bold;""
                            >sad</p>
                            <div style=""width:240px; margin: auto;"">
                                <img src=""images/map15_YlOrBr_scaleDef_orientDef_180.png"" style= ""width:200px""alt=""img"">
                            </div>
                        </div>",0.285,"",0,"",NA,"","images/map15_YlOrBr_scaleDef_orientDef_180.png","sad",1,15,15,"YlOrBr","orientDef","scaleDef","180",NA,NA
"","","","","","html-slider-response",138,638199,"0.0-134.0","1wvcpk8ffo",28,NA,"<div style=""width:500px;"">
                            <p style=""font-size:50px; font-weight:bold;""
                            >sad</p>
                            <div style=""width:240px; margin: auto;"">
                                <img src=""images/map26_BuGn_scaleDef_orientMir_180.png"" style= ""width:200px""alt=""img"">
                            </div>
                        </div>",0.1425,"",0,"",NA,"","images/map26_BuGn_scaleDef_orientMir_180.png","sad",1,26,26,"BuGn","orientMir","scaleDef","180",NA,NA
"","","","","","html-slider-response",139,639816,"0.0-135.0","1wvcpk8ffo",28,NA,"<div style=""width:500px;"">
                            <p style=""font-size:50px; font-weight:bold;""
                            >sad</p>
                            <div style=""width:240px; margin: auto;"">
                                <img src=""images/map27_PRGn_scaleRev_orientMir_090.png"" style= ""width:200px""alt=""img"">
                            </div>
                        </div>",0.465,"",0,"",NA,"","images/map27_PRGn_scaleRev_orientMir_090.png","sad",1,27,27,"PRGn","orientMir","scaleRev","090",NA,NA
"","","","","","html-slider-response",140,641783,"0.0-136.0","1wvcpk8ffo",28,NA,"<div style=""width:500px;"">
                            <p style=""font-size:50px; font-weight:bold;""
                            >sad</p>
                            <div style=""width:240px; margin: auto;"">
                                <img src=""images/map12_magma_scaleDef_orientDef_180.png"" style= ""width:200px""alt=""img"">
                            </div>
                        </div>",0.31,"",0,"",NA,"","images/map12_magma_scaleDef_orientDef_180.png","sad",1,12,12,"magma","orientDef","scaleDef","180",NA,NA
"","","","","","html-button-response",141,654955,"0.0-137.0","1wvcpk8ffo",28,12670,"<p>You are doing great!<br></br> You are halway done with the current block. When you are ready to continue, click the 'Continue' button.</p>",0.5,"",NA,"",NA,"","","",NA,NA,NA,"","","","",NA,NA
"","","","","","html-slider-response",142,657817,"0.0-138.0","1wvcpk8ffo",28,NA,"<div style=""width:500px;"">
                            <p style=""font-size:50px; font-weight:bold;""
                            >sad</p>
                            <div style=""width:240px; margin: auto;"">
                                <img src=""images/map12_Greys_scaleDef_orientMir_180.png"" style= ""width:200px""alt=""img"">
                            </div>
                        </div>",0.86,"",0,"",NA,"","images/map12_Greys_scaleDef_orientMir_180.png","sad",1,12,12,"Greys","orientMir","scaleDef","180",NA,NA
"","","","","","html-slider-response",143,660483,"0.0-139.0","1wvcpk8ffo",28,NA,"<div style=""width:500px;"">
                            <p style=""font-size:50px; font-weight:bold;""
                            >sad</p>
                            <div style=""width:240px; margin: auto;"">
                                <img src=""images/map23_RdPu_scaleDef_orientDef_180.png"" style= ""width:200px""alt=""img"">
                            </div>
                        </div>",0.2275,"",0,"",NA,"","images/map23_RdPu_scaleDef_orientDef_180.png","sad",1,23,23,"RdPu","orientDef","scaleDef","180",NA,NA
"","","","","","html-slider-response",144,662783,"0.0-140.0","1wvcpk8ffo",28,NA,"<div style=""width:500px;"">
                            <p style=""font-size:50px; font-weight:bold;""
                            >sad</p>
                            <div style=""width:240px; margin: auto;"">
                                <img src=""images/map15_Reds_scaleDef_orientDef_000.png"" style= ""width:200px""alt=""img"">
                            </div>
                        </div>",0.2625,"",0,"",NA,"","images/map15_Reds_scaleDef_orientDef_000.png","sad",1,15,15,"Reds","orientDef","scaleDef","000",NA,NA
"","","","","","html-slider-response",145,665348,"0.0-141.0","1wvcpk8ffo",28,NA,"<div style=""width:500px;"">
                            <p style=""font-size:50px; font-weight:bold;""
                            >sad</p>
                            <div style=""width:240px; margin: auto;"">
                                <img src=""images/map27_PRGn_scaleDef_orientMir_000.png"" style= ""width:200px""alt=""img"">
                            </div>
                        </div>",0.305,"",0,"",NA,"","images/map27_PRGn_scaleDef_orientMir_000.png","sad",1,27,27,"PRGn","orientMir","scaleDef","000",NA,NA
"","","","","","html-slider-response",146,667882,"0.0-142.0","1wvcpk8ffo",28,NA,"<div style=""width:500px;"">
                            <p style=""font-size:50px; font-weight:bold;""
                            >sad</p>
                            <div style=""width:240px; margin: auto;"">
                                <img src=""images/map05_Spectral_scaleRev_orientDef_270.png"" style= ""width:200px""alt=""img"">
                            </div>
                        </div>",0.4675,"",0,"",NA,"","images/map05_Spectral_scaleRev_orientDef_270.png","sad",1,5,5,"Spectral","orientDef","scaleRev","270",NA,NA
"","","","","","html-slider-response",147,669884,"0.0-143.0","1wvcpk8ffo",28,NA,"<div style=""width:500px;"">
                            <p style=""font-size:50px; font-weight:bold;""
                            >sad</p>
                            <div style=""width:240px; margin: auto;"">
                                <img src=""images/map02_PuOr_scaleRev_orientDef_090.png"" style= ""width:200px""alt=""img"">
                            </div>
                        </div>",0.395,"",0,"",NA,"","images/map02_PuOr_scaleRev_orientDef_090.png","sad",1,2,2,"PuOr","orientDef","scaleRev","090",NA,NA
"","","","","","html-slider-response",148,672199,"0.0-144.0","1wvcpk8ffo",28,NA,"<div style=""width:500px;"">
                            <p style=""font-size:50px; font-weight:bold;""
                            >sad</p>
                            <div style=""width:240px; margin: auto;"">
                                <img src=""images/map07_seismic_scaleDef_orientDef_000.png"" style= ""width:200px""alt=""img"">
                            </div>
                        </div>",0.1875,"",0,"",NA,"","images/map07_seismic_scaleDef_orientDef_000.png","sad",1,7,7,"seismic","orientDef","scaleDef","000",NA,NA
"","","","","","html-slider-response",149,674801,"0.0-145.0","1wvcpk8ffo",28,NA,"<div style=""width:500px;"">
                            <p style=""font-size:50px; font-weight:bold;""
                            >sad</p>
                            <div style=""width:240px; margin: auto;"">
                                <img src=""images/map02_RdYlBu_scaleDef_orientMir_180.png"" style= ""width:200px""alt=""img"">
                            </div>
                        </div>",0.375,"",0,"",NA,"","images/map02_RdYlBu_scaleDef_orientMir_180.png","sad",1,2,2,"RdYlBu","orientMir","scaleDef","180",NA,NA
"","","","","","html-slider-response",150,677314,"0.0-146.0","1wvcpk8ffo",28,NA,"<div style=""width:500px;"">
                            <p style=""font-size:50px; font-weight:bold;""
                            >sad</p>
                            <div style=""width:240px; margin: auto;"">
                                <img src=""images/map10_viridis_scaleRev_orientMir_090.png"" style= ""width:200px""alt=""img"">
                            </div>
                        </div>",0.2,"",0,"",NA,"","images/map10_viridis_scaleRev_orientMir_090.png","sad",1,10,10,"viridis","orientMir","scaleRev","090",NA,NA
"","","","","","html-slider-response",151,679614,"0.0-147.0","1wvcpk8ffo",28,NA,"<div style=""width:500px;"">
                            <p style=""font-size:50px; font-weight:bold;""
                            >sad</p>
                            <div style=""width:240px; margin: auto;"">
                                <img src=""images/map23_GnBu_scaleRev_orientMir_270.png"" style= ""width:200px""alt=""img"">
                            </div>
                        </div>",0.075,"",0,"",NA,"","images/map23_GnBu_scaleRev_orientMir_270.png","sad",1,23,23,"GnBu","orientMir","scaleRev","270",NA,NA
"","","","","","html-slider-response",152,682015,"0.0-148.0","1wvcpk8ffo",28,NA,"<div style=""width:500px;"">
                            <p style=""font-size:50px; font-weight:bold;""
                            >sad</p>
                            <div style=""width:240px; margin: auto;"">
                                <img src=""images/map23_BuPu_scaleRev_orientMir_090.png"" style= ""width:200px""alt=""img"">
                            </div>
                        </div>",0.55,"",0,"",NA,"","images/map23_BuPu_scaleRev_orientMir_090.png","sad",1,23,23,"BuPu","orientMir","scaleRev","090",NA,NA
"","","","","","html-slider-response",153,692748,"0.0-149.0","1wvcpk8ffo",28,NA,"<div style=""width:500px;"">
                            <p style=""font-size:50px; font-weight:bold;""
                            >sad</p>
                            <div style=""width:240px; margin: auto;"">
                                <img src=""images/map27_YlGn_scaleDef_orientDef_000.png"" style= ""width:200px""alt=""img"">
                            </div>
                        </div>",0.315,"",0,"",NA,"","images/map27_YlGn_scaleDef_orientDef_000.png","sad",1,27,27,"YlGn","orientDef","scaleDef","000",NA,NA
"","","","","","html-slider-response",154,694799,"0.0-150.0","1wvcpk8ffo",28,NA,"<div style=""width:500px;"">
                            <p style=""font-size:50px; font-weight:bold;""
                            >sad</p>
                            <div style=""width:240px; margin: auto;"">
                                <img src=""images/map15_OrRd_scaleRev_orientMir_270.png"" style= ""width:200px""alt=""img"">
                            </div>
                        </div>",0.255,"",0,"",NA,"","images/map15_OrRd_scaleRev_orientMir_270.png","sad",1,15,15,"OrRd","orientMir","scaleRev","270",NA,NA
"","","","","","html-slider-response",155,697264,"0.0-151.0","1wvcpk8ffo",28,NA,"<div style=""width:500px;"">
                            <p style=""font-size:50px; font-weight:bold;""
                            >sad</p>
                            <div style=""width:240px; margin: auto;"">
                                <img src=""images/map26_YlGnBu_scaleDef_orientDef_180.png"" style= ""width:200px""alt=""img"">
                            </div>
                        </div>",0.1875,"",0,"",NA,"","images/map26_YlGnBu_scaleDef_orientDef_180.png","sad",1,26,26,"YlGnBu","orientDef","scaleDef","180",NA,NA
"","","","","","html-slider-response",156,699198,"0.0-152.0","1wvcpk8ffo",28,NA,"<div style=""width:500px;"">
                            <p style=""font-size:50px; font-weight:bold;""
                            >sad</p>
                            <div style=""width:240px; margin: auto;"">
                                <img src=""images/map13_Purples_scaleDef_orientDef_000.png"" style= ""width:200px""alt=""img"">
                            </div>
                        </div>",0.545,"",0,"",NA,"","images/map13_Purples_scaleDef_orientDef_000.png","sad",1,13,13,"Purples","orientDef","scaleDef","000",NA,NA
"","","","","","html-slider-response",157,700898,"0.0-153.0","1wvcpk8ffo",28,NA,"<div style=""width:500px;"">
                            <p style=""font-size:50px; font-weight:bold;""
                            >sad</p>
                            <div style=""width:240px; margin: auto;"">
                                <img src=""images/map27_BrBG_scaleRev_orientMir_270.png"" style= ""width:200px""alt=""img"">
                            </div>
                        </div>",0.405,"",0,"",NA,"","images/map27_BrBG_scaleRev_orientMir_270.png","sad",1,27,27,"BrBG","orientMir","scaleRev","270",NA,NA
"","","","","","html-slider-response",158,702782,"0.0-154.0","1wvcpk8ffo",28,NA,"<div style=""width:500px;"">
                            <p style=""font-size:50px; font-weight:bold;""
                            >sad</p>
                            <div style=""width:240px; margin: auto;"">
                                <img src=""images/map02_RdGy_scaleDef_orientDef_180.png"" style= ""width:200px""alt=""img"">
                            </div>
                        </div>",0.5175,"",0,"",NA,"","images/map02_RdGy_scaleDef_orientDef_180.png","sad",1,2,2,"RdGy","orientDef","scaleDef","180",NA,NA
"","","","","","html-slider-response",159,704399,"0.0-155.0","1wvcpk8ffo",28,NA,"<div style=""width:500px;"">
                            <p style=""font-size:50px; font-weight:bold;""
                            >sad</p>
                            <div style=""width:240px; margin: auto;"">
                                <img src=""images/map26_PuBuGn_scaleDef_orientMir_000.png"" style= ""width:200px""alt=""img"">
                            </div>
                        </div>",0.4,"",0,"",NA,"","images/map26_PuBuGn_scaleDef_orientMir_000.png","sad",1,26,26,"PuBuGn","orientMir","scaleDef","000",NA,NA
"","","","","","html-slider-response",160,706631,"0.0-156.0","1wvcpk8ffo",28,NA,"<div style=""width:500px;"">
                            <p style=""font-size:50px; font-weight:bold;""
                            >sad</p>
                            <div style=""width:240px; margin: auto;"">
                                <img src=""images/map12_Greys_scaleRev_orientMir_270.png"" style= ""width:200px""alt=""img"">
                            </div>
                        </div>",0.8075,"",0,"",NA,"","images/map12_Greys_scaleRev_orientMir_270.png","sad",1,12,12,"Greys","orientMir","scaleRev","270",NA,NA
"","","","","","html-slider-response",161,708516,"0.0-157.0","1wvcpk8ffo",28,NA,"<div style=""width:500px;"">
                            <p style=""font-size:50px; font-weight:bold;""
                            >sad</p>
                            <div style=""width:240px; margin: auto;"">
                                <img src=""images/map26_PuBu_scaleRev_orientDef_090.png"" style= ""width:200px""alt=""img"">
                            </div>
                        </div>",0.195,"",0,"",NA,"","images/map26_PuBu_scaleRev_orientDef_090.png","sad",1,26,26,"PuBu","orientDef","scaleRev","090",NA,NA
"","","","","","html-slider-response",162,711181,"0.0-158.0","1wvcpk8ffo",28,NA,"<div style=""width:500px;"">
                            <p style=""font-size:50px; font-weight:bold;""
                            >sad</p>
                            <div style=""width:240px; margin: auto;"">
                                <img src=""images/map05_coolwarm_scaleDef_orientMir_000.png"" style= ""width:200px""alt=""img"">
                            </div>
