"success","timeout","failed_images","failed_audio","failed_video","trial_type","trial_index","time_elapsed","internal_node_id","subject_id","condition_num","rt","stimulus","response","question_order","slider_start","practiceTrial","practiceTrialNum","correct","image_path","concept","repetition","map_id","map_num","scale_name","orientation_code","mapping_code","rotation_code","ishihara_plate","correct_response"
"true","false","[]","[]","[]","preload",0,349,"0.0-0.0","u0jza37d61",30,NA,"",NA,"",NA,"",NA,"","","",NA,NA,NA,"","","","",NA,NA
"","","","","","html-button-response",1,2530,"0.0-1.0","u0jza37d61",30,2179,"Welcome to our experiment!<p>At the bottom of this screen, you will see a button that says ""Begin Experiment"".<br>Please only click that button when you are ready to complete the 30 minute experiment in one sitting.</p><p> Once you click that button, it will not be possible to restart the experiment.",0.5,"",NA,"",NA,"","","",NA,NA,NA,"","","","",NA,NA
"true","","","","","fullscreen",2,5378,"0.0-2.0","u0jza37d61",30,1846,"",NA,"",NA,"",NA,"","","",NA,NA,NA,"","","","",NA,NA
"","","","","","survey-multi-select",3,32178,"0.0-3.0","u0jza37d61",30,26795,"",NA,"[0]",NA,"",NA,"","","",NA,NA,NA,"","","","",NA,NA
"","","","","","html-button-response",4,34843,"0.0-4.0","u0jza37d61",30,2663,"Welcome! <p> This experiment involves two parts: demographic information, followed by the experimental task.<p> It will take about 30 minutes to complete both parts.",0.5,"",NA,"",NA,"","","",NA,NA,NA,"","","","",NA,NA
"","","","","","survey-text",5,48512,"0.0-5.0","u0jza37d61",30,13663,"",NA,"",NA,"",NA,"","","",NA,NA,NA,"","","","",NA,NA
"","","","","","html-slider-response",6,73637,"0.0-6.0","u0jza37d61",30,25113,"<div style='text-align:left; font-size:20px; line-height:25px; width: 1000px;'>
                                During this experiment you will be asked to rate how much you associate maps with                    different concepts.<br> Below, you can see some examples of the maps you will be asked to rate. Above the maps
                    is the list of concepts.<br>You will be asked                    to rate how much you associate each map with each concept on a scale from 'not at all' to 'very much' like the
                    one below. <br><br>
                    Now, please look at the list of concepts and maps. For each concept, think about the map you associate 'very
                    much' with the concept.<br>                     When you see that map during the experiment, please rate it near the 'very much' endpoint of the
                    scale.<br>Now, please think about which map you associate 'not at all'                     with each concept. When you see that map during the experiment, please rate it near the 'not at all' endpoint
                    of the scale.<br>
                    Please use the full range of the scale. That is, if a map is somewhat associated with the concept, you would
                    click partway between the middle point and right side of the scale.                    You will be asked to rate each map for a given concept before moving on to the next concept.<br>Press the
                    'Continue' button for instructions on how to use the slider.                    <br>
                </div>

                <div style=""width: 500px; margin: 0 auto;"">
                    <!-- Centered text paragraphs -->
                    <div style=""text-align: center; width: 500px;"">
                        <p style=""font-size:25px; line-height:15px;"">
                            sad&nbsp;&nbsp;&nbsp;&nbsp;
                            disgust&nbsp;&nbsp;&nbsp;&nbsp;
                            angry&nbsp;&nbsp;&nbsp;&nbsp;
                            fearful&nbsp;&nbsp;&nbsp;&nbsp;
                            happy
                        </p>
                        <!-- <p style=""font-size:20px; line-height:15px;"">disgust</p>
                        <p style=""font-size:20px;line-height:15px;"">angry</p>
                        <p style=""font-size:20px;line-height:15px;"">fearful</p>
                        <p style=""font-size:20px;line-height:15px;"">happy</p> -->
                    </div>
            

                    <!-- Grid section -->
                   <div style=""display: flex; justify-content: center; padding-top: 15px;"">
                    <div style=""display: grid; grid-template-columns: repeat(10, 55px); grid-gap: 5px; width: auto;"">
                        <img src=""images/map27_PRGn_scaleDef_orientMir_180.png"" alt=""map"" style=""width: 100%;""><img src=""images/map07_seismic_scaleDef_orientDef_180.png"" alt=""map"" style=""width: 100%;""><img src=""images/map10_viridis_scaleRev_orientMir_270.png"" alt=""map"" style=""width: 100%;""><img src=""images/map27_BuGn_scaleDef_orientDef_000.png"" alt=""map"" style=""width: 100%;""><img src=""images/map15_Reds_scaleDef_orientDef_180.png"" alt=""map"" style=""width: 100%;""><img src=""images/map27_YlGn_scaleRev_orientDef_270.png"" alt=""map"" style=""width: 100%;""><img src=""images/map15_Oranges_scaleRev_orientDef_090.png"" alt=""map"" style=""width: 100%;""><img src=""images/map15_YlOrRd_scaleRev_orientMir_270.png"" alt=""map"" style=""width: 100%;""><img src=""images/map27_PiYG_scaleRev_orientMir_090.png"" alt=""map"" style=""width: 100%;""><img src=""images/map12_cividis_scaleDef_orientMir_180.png"" alt=""map"" style=""width: 100%;""><img src=""images/map13_Purples_scaleRev_orientDef_270.png"" alt=""map"" style=""width: 100%;""><img src=""images/map07_managua_scaleRev_orientMir_270.png"" alt=""map"" style=""width: 100%;""><img src=""images/map05_coolwarm_scaleDef_orientMir_180.png"" alt=""map"" style=""width: 100%;""><img src=""images/map23_PuRd_scaleRev_orientDef_270.png"" alt=""map"" style=""width: 100%;""><img src=""images/map10_vanimo_scaleRev_orientDef_090.png"" alt=""map"" style=""width: 100%;""><img src=""images/map13_Blues_scaleRev_orientMir_090.png"" alt=""map"" style=""width: 100%;""><img src=""images/map07_berlin_scaleDef_orientMir_000.png"" alt=""map"" style=""width: 100%;""><img src=""images/map15_YlOrBr_scaleRev_orientMir_090.png"" alt=""map"" style=""width: 100%;""><img src=""images/map10_turbo_scaleRev_orientMir_090.png"" alt=""map"" style=""width: 100%;""><img src=""images/map05_RdYlBu_scaleRev_orientDef_090.png"" alt=""map"" style=""width: 100%;""><img src=""images/map26_PuBuGn_scaleDef_orientMir_180.png"" alt=""map"" style=""width: 100%;""><img src=""images/map02_BrBG_scaleDef_orientDef_000.png"" alt=""map"" style=""width: 100%;""><img src=""images/map26_GnBu_scaleDef_orientDef_000.png"" alt=""map"" style=""width: 100%;""><img src=""images/map13_Greens_scaleDef_orientMir_180.png"" alt=""map"" style=""width: 100%;""><img src=""images/map13_Greys_scaleDef_orientDef_000.png"" alt=""map"" style=""width: 100%;""><img src=""images/map02_RdGy_scaleRev_orientMir_090.png"" alt=""map"" style=""width: 100%;""><img src=""images/map05_RdYlGn_scaleRev_orientDef_270.png"" alt=""map"" style=""width: 100%;""><img src=""images/map23_RdPu_scaleDef_orientMir_000.png"" alt=""map"" style=""width: 100%;""><img src=""images/map02_RdBu_scaleRev_orientMir_270.png"" alt=""map"" style=""width: 100%;""><img src=""images/map23_BuPu_scaleRev_orientMir_270.png"" alt=""map"" style=""width: 100%;""><img src=""images/map26_PuBu_scaleRev_orientDef_270.png"" alt=""map"" style=""width: 100%;""><img src=""images/map10_gist_earth_scaleRev_orientDef_270.png"" alt=""map"" style=""width: 100%;""><img src=""images/map12_inferno_scaleDef_orientDef_180.png"" alt=""map"" style=""width: 100%;""><img src=""images/map23_OrRd_scaleRev_orientDef_090.png"" alt=""map"" style=""width: 100%;""><img src=""images/map26_YlGnBu_scaleRev_orientMir_090.png"" alt=""map"" style=""width: 100%;""><img src=""images/map02_PuOr_scaleDef_orientDef_180.png"" alt=""map"" style=""width: 100%;""><img src=""images/map07_bwr_scaleDef_orientDef_000.png"" alt=""map"" style=""width: 100%;""><img src=""images/map12_magma_scaleDef_orientMir_000.png"" alt=""map"" style=""width: 100%;""><img src=""images/map12_plasma_scaleRev_orientDef_090.png"" alt=""map"" style=""width: 100%;""><img src=""images/map05_Spectral_scaleRev_orientMir_090.png"" alt=""map"" style=""width: 100%;"">
                    </div>
                </div>

                    <!-- Clear floats -->
                    <div style=""clear: both;""></div>
                </div>
                            ",0.935,"",0,"true",NA,"","","",NA,NA,NA,"","","","",NA,NA
"","","","","","html-button-response",7,76537,"0.0-7.0","u0jza37d61",30,2898,"<div style=""width:800px;""><p style=""text-align:left"">To move the slider, click and drag your cursor to the location of the scale where you would like to make your rating and then let go. When you let go of the slider, your response will be recorded and the next trial will begin. <br>
                    We are interested in your initial impressions of each map for the given concept, so please go with your first intuition. <br>
                    Before you begin the experiment, there will be four training trials for you to practice using the scale. <br>
                     When you are ready to start the training trials, please click ""Continue"".</p><br></div>",0.5,"",NA,"",NA,"","","",NA,NA,NA,"","","","",NA,NA
"","","","","","html-slider-response",8,79582,"0.0-8.0-0.0","u0jza37d61",30,NA,"<div style=""width:500px;"">
                                    <p style=""font-size:25px;"">Please move the slider all the way to the <br> right endpoint of the scale</p>

                                    </div>
                                </div>",1,"",0,"true",0,"true","","",NA,NA,NA,"","","","",NA,NA
"","","","","","html-button-response",9,81371,"0.0-8.0-1.0","u0jza37d61",30,1285,"<p align='center'><b>Good job!</b> Click on 'Continue' to proceed.</p>",0.5,"",NA,"",NA,"","","",NA,NA,NA,"","","","",NA,NA
"","","","","","html-slider-response",10,84000,"0.0-9.0-0.0","u0jza37d61",30,NA,"<div style=""width:500px;"">
                                    <p style=""font-size:25px;"">Please move the slider all the way to the <br> left endpoint of the scale</p>

                                    </div>
                                </div>",0,"",0,"true",1,"true","","",NA,NA,NA,"","","","",NA,NA
"","","","","","html-button-response",11,85338,"0.0-9.0-1.0","u0jza37d61",30,835,"<p align='center'><b>Good job!</b> Click on 'Continue' to proceed.</p>",0.5,"",NA,"",NA,"","","",NA,NA,NA,"","","","",NA,NA
"","","","","","html-slider-response",12,90249,"0.0-10.0-0.0","u0jza37d61",30,NA,"<div style=""width:500px;"">
                                    <p style=""font-size:25px;"">Please move the slider halfway between the center and right endpoint of the scale</p>

                                    </div>
                                </div>",0.775,"",0,"true",2,"true","","",NA,NA,NA,"","","","",NA,NA
"","","","","","html-button-response",13,91455,"0.0-10.0-1.0","u0jza37d61",30,703,"<p align='center'><b>Good job!</b> Click on 'Continue' to proceed.</p>",0.5,"",NA,"",NA,"","","",NA,NA,NA,"","","","",NA,NA
"","","","","","html-slider-response",14,94067,"0.0-11.0-0.0","u0jza37d61",30,NA,"<div style=""width:500px;"">
                                    <p style=""font-size:25px;"">Please move the slider halfway between the center and left endpoint of the scale</p>

                                    </div>
                                </div>",0.225,"",0,"true",3,"true","","",NA,NA,NA,"","","","",NA,NA
"","","","","","html-button-response",15,95421,"0.0-11.0-1.0","u0jza37d61",30,851,"<p align='center'><b>Good job!</b> Click on 'Continue' to proceed.</p>",0.5,"",NA,"",NA,"","","",NA,NA,NA,"","","","",NA,NA
"","","","","","html-button-response",16,164455,"0.0-12.0","u0jza37d61",30,69032,"<p>Great job! You've completed the practice trials. Now you will begin the main task.</p>",0.5,"",NA,"",NA,"","","",NA,NA,NA,"","","","",NA,NA
"","","","","","html-button-response",17,166872,"0.0-13.0","u0jza37d61",30,2416,"<p>In this block of trials, you will be asked to rate how much you associate each map with:</p > <p style = 'font-size:150%; font-weight: bold'>sad</p><br></br>",0.5,"",NA,"",NA,"","","",NA,NA,NA,"","","","",NA,NA
"","","","","","html-slider-response",18,172635,"0.0-14.0","u0jza37d61",30,NA,"<div style=""width:500px;"">
                            <p style=""font-size:50px; font-weight:bold;""
                            >sad</p>
                            <div style=""width:240px; margin: auto;"">
                                <img src=""images/map23_PuRd_scaleRev_orientDef_270.png"" style= ""width:200px""alt=""img"">
                            </div>
                        </div>",0.1675,"",0,"",NA,"","images/map23_PuRd_scaleRev_orientDef_270.png","sad",1,23,23,"PuRd","orientDef","scaleRev","270",NA,NA
"","","","","","html-slider-response",19,178101,"0.0-15.0","u0jza37d61",30,NA,"<div style=""width:500px;"">
                            <p style=""font-size:50px; font-weight:bold;""
                            >sad</p>
                            <div style=""width:240px; margin: auto;"">
                                <img src=""images/map07_managua_scaleRev_orientMir_270.png"" style= ""width:200px""alt=""img"">
                            </div>
                        </div>",0.5525,"",0,"",NA,"","images/map07_managua_scaleRev_orientMir_270.png","sad",1,7,7,"managua","orientMir","scaleRev","270",NA,NA
"","","","","","html-slider-response",20,181783,"0.0-16.0","u0jza37d61",30,NA,"<div style=""width:500px;"">
                            <p style=""font-size:50px; font-weight:bold;""
                            >sad</p>
                            <div style=""width:240px; margin: auto;"">
                                <img src=""images/map13_Greens_scaleDef_orientMir_180.png"" style= ""width:200px""alt=""img"">
                            </div>
                        </div>",0.1925,"",0,"",NA,"","images/map13_Greens_scaleDef_orientMir_180.png","sad",1,13,13,"Greens","orientMir","scaleDef","180",NA,NA
"","","","","","html-slider-response",21,184066,"0.0-17.0","u0jza37d61",30,NA,"<div style=""width:500px;"">
                            <p style=""font-size:50px; font-weight:bold;""
                            >sad</p>
                            <div style=""width:240px; margin: auto;"">
                                <img src=""images/map12_plasma_scaleDef_orientDef_000.png"" style= ""width:200px""alt=""img"">
                            </div>
                        </div>",0.075,"",0,"",NA,"","images/map12_plasma_scaleDef_orientDef_000.png","sad",1,12,12,"plasma","orientDef","scaleDef","000",NA,NA
"","","","","","html-slider-response",22,186217,"0.0-18.0","u0jza37d61",30,NA,"<div style=""width:500px;"">
                            <p style=""font-size:50px; font-weight:bold;""
                            >sad</p>
                            <div style=""width:240px; margin: auto;"">
                                <img src=""images/map27_BuGn_scaleDef_orientDef_000.png"" style= ""width:200px""alt=""img"">
                            </div>
                        </div>",0.195,"",0,"",NA,"","images/map27_BuGn_scaleDef_orientDef_000.png","sad",1,27,27,"BuGn","orientDef","scaleDef","000",NA,NA
"","","","","","html-slider-response",23,190926,"0.0-19.0","u0jza37d61",30,NA,"<div style=""width:500px;"">
                            <p style=""font-size:50px; font-weight:bold;""
                            >sad</p>
                            <div style=""width:240px; margin: auto;"">
                                <img src=""images/map26_PuBu_scaleRev_orientDef_270.png"" style= ""width:200px""alt=""img"">
                            </div>
                        </div>",0.6275,"",0,"",NA,"","images/map26_PuBu_scaleRev_orientDef_270.png","sad",1,26,26,"PuBu","orientDef","scaleRev","270",NA,NA
"","","","","","html-slider-response",24,195101,"0.0-20.0","u0jza37d61",30,NA,"<div style=""width:500px;"">
                            <p style=""font-size:50px; font-weight:bold;""
                            >sad</p>
                            <div style=""width:240px; margin: auto;"">
                                <img src=""images/map05_Spectral_scaleDef_orientMir_000.png"" style= ""width:200px""alt=""img"">
                            </div>
                        </div>",0.675,"",0,"",NA,"","images/map05_Spectral_scaleDef_orientMir_000.png","sad",1,5,5,"Spectral","orientMir","scaleDef","000",NA,NA
"","","","","","html-slider-response",25,197618,"0.0-21.0","u0jza37d61",30,NA,"<div style=""width:500px;"">
                            <p style=""font-size:50px; font-weight:bold;""
                            >sad</p>
                            <div style=""width:240px; margin: auto;"">
                                <img src=""images/map23_OrRd_scaleDef_orientDef_000.png"" style= ""width:200px""alt=""img"">
                            </div>
                        </div>",0.6725,"",0,"",NA,"","images/map23_OrRd_scaleDef_orientDef_000.png","sad",1,23,23,"OrRd","orientDef","scaleDef","000",NA,NA
"","","","","","html-slider-response",26,199451,"0.0-22.0","u0jza37d61",30,NA,"<div style=""width:500px;"">
                            <p style=""font-size:50px; font-weight:bold;""
                            >sad</p>
                            <div style=""width:240px; margin: auto;"">
                                <img src=""images/map13_Greens_scaleRev_orientMir_270.png"" style= ""width:200px""alt=""img"">
                            </div>
                        </div>",0.115,"",0,"",NA,"","images/map13_Greens_scaleRev_orientMir_270.png","sad",1,13,13,"Greens","orientMir","scaleRev","270",NA,NA
"","","","","","html-slider-response",27,201501,"0.0-23.0","u0jza37d61",30,NA,"<div style=""width:500px;"">
                            <p style=""font-size:50px; font-weight:bold;""
                            >sad</p>
                            <div style=""width:240px; margin: auto;"">
                                <img src=""images/map10_viridis_scaleDef_orientMir_180.png"" style= ""width:200px""alt=""img"">
                            </div>
                        </div>",0.2625,"",0,"",NA,"","images/map10_viridis_scaleDef_orientMir_180.png","sad",1,10,10,"viridis","orientMir","scaleDef","180",NA,NA
"","","","","","html-slider-response",28,205851,"0.0-24.0","u0jza37d61",30,NA,"<div style=""width:500px;"">
                            <p style=""font-size:50px; font-weight:bold;""
                            >sad</p>
                            <div style=""width:240px; margin: auto;"">
                                <img src=""images/map10_vanimo_scaleDef_orientDef_000.png"" style= ""width:200px""alt=""img"">
                            </div>
                        </div>",0.62,"",0,"",NA,"","images/map10_vanimo_scaleDef_orientDef_000.png","sad",1,10,10,"vanimo","orientDef","scaleDef","000",NA,NA
"","","","","","html-slider-response",29,209867,"0.0-25.0","u0jza37d61",30,NA,"<div style=""width:500px;"">
                            <p style=""font-size:50px; font-weight:bold;""
                            >sad</p>
                            <div style=""width:240px; margin: auto;"">
                                <img src=""images/map13_Blues_scaleRev_orientMir_090.png"" style= ""width:200px""alt=""img"">
                            </div>
                        </div>",0.3275,"",0,"",NA,"","images/map13_Blues_scaleRev_orientMir_090.png","sad",1,13,13,"Blues","orientMir","scaleRev","090",NA,NA
"","","","","","html-slider-response",30,212149,"0.0-26.0","u0jza37d61",30,NA,"<div style=""width:500px;"">
                            <p style=""font-size:50px; font-weight:bold;""
                            >sad</p>
                            <div style=""width:240px; margin: auto;"">
                                <img src=""images/map13_Purples_scaleDef_orientDef_180.png"" style= ""width:200px""alt=""img"">
                            </div>
                        </div>",0.285,"",0,"",NA,"","images/map13_Purples_scaleDef_orientDef_180.png","sad",1,13,13,"Purples","orientDef","scaleDef","180",NA,NA
"","","","","","html-slider-response",31,214133,"0.0-27.0","u0jza37d61",30,NA,"<div style=""width:500px;"">
                            <p style=""font-size:50px; font-weight:bold;""
                            >sad</p>
                            <div style=""width:240px; margin: auto;"">
                                <img src=""images/map27_YlGn_scaleDef_orientDef_180.png"" style= ""width:200px""alt=""img"">
                            </div>
                        </div>",0.1475,"",0,"",NA,"","images/map27_YlGn_scaleDef_orientDef_180.png","sad",1,27,27,"YlGn","orientDef","scaleDef","180",NA,NA
"","","","","","html-slider-response",32,217084,"0.0-28.0","u0jza37d61",30,NA,"<div style=""width:500px;"">
                            <p style=""font-size:50px; font-weight:bold;""
                            >sad</p>
                            <div style=""width:240px; margin: auto;"">
                                <img src=""images/map12_magma_scaleDef_orientMir_000.png"" style= ""width:200px""alt=""img"">
                            </div>
                        </div>",0.66,"",0,"",NA,"","images/map12_magma_scaleDef_orientMir_000.png","sad",1,12,12,"magma","orientMir","scaleDef","000",NA,NA
"","","","","","html-slider-response",33,219317,"0.0-29.0","u0jza37d61",30,NA,"<div style=""width:500px;"">
                            <p style=""font-size:50px; font-weight:bold;""
                            >sad</p>
                            <div style=""width:240px; margin: auto;"">
                                <img src=""images/map13_Greys_scaleDef_orientDef_000.png"" style= ""width:200px""alt=""img"">
                            </div>
                        </div>",0.8975,"",0,"",NA,"","images/map13_Greys_scaleDef_orientDef_000.png","sad",1,13,13,"Greys","orientDef","scaleDef","000",NA,NA
"","","","","","html-slider-response",34,221716,"0.0-30.0","u0jza37d61",30,NA,"<div style=""width:500px;"">
                            <p style=""font-size:50px; font-weight:bold;""
                            >sad</p>
                            <div style=""width:240px; margin: auto;"">
                                <img src=""images/map26_GnBu_scaleDef_orientDef_000.png"" style= ""width:200px""alt=""img"">
                            </div>
                        </div>",0.645,"",0,"",NA,"","images/map26_GnBu_scaleDef_orientDef_000.png","sad",1,26,26,"GnBu","orientDef","scaleDef","000",NA,NA
"","","","","","html-slider-response",35,223916,"0.0-31.0","u0jza37d61",30,NA,"<div style=""width:500px;"">
                            <p style=""font-size:50px; font-weight:bold;""
                            >sad</p>
                            <div style=""width:240px; margin: auto;"">
                                <img src=""images/map07_seismic_scaleRev_orientDef_270.png"" style= ""width:200px""alt=""img"">
                            </div>
                        </div>",0.2875,"",0,"",NA,"","images/map07_seismic_scaleRev_orientDef_270.png","sad",1,7,7,"seismic","orientDef","scaleRev","270",NA,NA
"","","","","","html-slider-response",36,226184,"0.0-32.0","u0jza37d61",30,NA,"<div style=""width:500px;"">
                            <p style=""font-size:50px; font-weight:bold;""
                            >sad</p>
                            <div style=""width:240px; margin: auto;"">
                                <img src=""images/map27_PRGn_scaleRev_orientMir_270.png"" style= ""width:200px""alt=""img"">
                            </div>
                        </div>",0.245,"",0,"",NA,"","images/map27_PRGn_scaleRev_orientMir_270.png","sad",1,27,27,"PRGn","orientMir","scaleRev","270",NA,NA
"","","","","","html-slider-response",37,228434,"0.0-33.0","u0jza37d61",30,NA,"<div style=""width:500px;"">
                            <p style=""font-size:50px; font-weight:bold;""
                            >sad</p>
                            <div style=""width:240px; margin: auto;"">
                                <img src=""images/map02_RdGy_scaleRev_orientMir_090.png"" style= ""width:200px""alt=""img"">
                            </div>
                        </div>",0.9025,"",0,"",NA,"","images/map02_RdGy_scaleRev_orientMir_090.png","sad",1,2,2,"RdGy","orientMir","scaleRev","090",NA,NA
"","","","","","html-slider-response",38,230616,"0.0-34.0","u0jza37d61",30,NA,"<div style=""width:500px;"">
                            <p style=""font-size:50px; font-weight:bold;""
                            >sad</p>
                            <div style=""width:240px; margin: auto;"">
                                <img src=""images/map23_RdPu_scaleDef_orientMir_000.png"" style= ""width:200px""alt=""img"">
                            </div>
                        </div>",0.315,"",0,"",NA,"","images/map23_RdPu_scaleDef_orientMir_000.png","sad",1,23,23,"RdPu","orientMir","scaleDef","000",NA,NA
"","","","","","html-slider-response",39,232952,"0.0-35.0","u0jza37d61",30,NA,"<div style=""width:500px;"">
                            <p style=""font-size:50px; font-weight:bold;""
                            >sad</p>
                            <div style=""width:240px; margin: auto;"">
                                <img src=""images/map13_Greys_scaleRev_orientDef_090.png"" style= ""width:200px""alt=""img"">
                            </div>
                        </div>",0.87,"",0,"",NA,"","images/map13_Greys_scaleRev_orientDef_090.png","sad",1,13,13,"Greys","orientDef","scaleRev","090",NA,NA
"","","","","","html-slider-response",40,234733,"0.0-36.0","u0jza37d61",30,NA,"<div style=""width:500px;"">
                            <p style=""font-size:50px; font-weight:bold;""
                            >sad</p>
                            <div style=""width:240px; margin: auto;"">
                                <img src=""images/map23_BuPu_scaleRev_orientMir_270.png"" style= ""width:200px""alt=""img"">
                            </div>
                        </div>",0.2825,"",0,"",NA,"","images/map23_BuPu_scaleRev_orientMir_270.png","sad",1,23,23,"BuPu","orientMir","scaleRev","270",NA,NA
"","","","","","html-slider-response",41,236667,"0.0-37.0","u0jza37d61",30,NA,"<div style=""width:500px;"">
                            <p style=""font-size:50px; font-weight:bold;""
                            >sad</p>
                            <div style=""width:240px; margin: auto;"">
                                <img src=""images/map07_managua_scaleDef_orientMir_180.png"" style= ""width:200px""alt=""img"">
                            </div>
                        </div>",0.12,"",0,"",NA,"","images/map07_managua_scaleDef_orientMir_180.png","sad",1,7,7,"managua","orientMir","scaleDef","180",NA,NA
"","","","","","html-slider-response",42,238700,"0.0-38.0","u0jza37d61",30,NA,"<div style=""width:500px;"">
                            <p style=""font-size:50px; font-weight:bold;""
                            >sad</p>
                            <div style=""width:240px; margin: auto;"">
                                <img src=""images/map05_RdYlGn_scaleDef_orientDef_180.png"" style= ""width:200px""alt=""img"">
                            </div>
                        </div>",0.605,"",0,"",NA,"","images/map05_RdYlGn_scaleDef_orientDef_180.png","sad",1,5,5,"RdYlGn","orientDef","scaleDef","180",NA,NA
"","","","","","html-slider-response",43,240518,"0.0-39.0","u0jza37d61",30,NA,"<div style=""width:500px;"">
                            <p style=""font-size:50px; font-weight:bold;""
                            >sad</p>
                            <div style=""width:240px; margin: auto;"">
                                <img src=""images/map07_berlin_scaleRev_orientMir_090.png"" style= ""width:200px""alt=""img"">
                            </div>
                        </div>",0.875,"",0,"",NA,"","images/map07_berlin_scaleRev_orientMir_090.png","sad",1,7,7,"berlin","orientMir","scaleRev","090",NA,NA
"","","","","","html-slider-response",44,242700,"0.0-40.0","u0jza37d61",30,NA,"<div style=""width:500px;"">
                            <p style=""font-size:50px; font-weight:bold;""
                            >sad</p>
                            <div style=""width:240px; margin: auto;"">
                                <img src=""images/map12_magma_scaleRev_orientMir_090.png"" style= ""width:200px""alt=""img"">
                            </div>
                        </div>",0.3125,"",0,"",NA,"","images/map12_magma_scaleRev_orientMir_090.png","sad",1,12,12,"magma","orientMir","scaleRev","090",NA,NA
"","","","","","html-slider-response",45,244434,"0.0-41.0","u0jza37d61",30,NA,"<div style=""width:500px;"">
                            <p style=""font-size:50px; font-weight:bold;""
                            >sad</p>
                            <div style=""width:240px; margin: auto;"">
                                <img src=""images/map26_GnBu_scaleRev_orientDef_090.png"" style= ""width:200px""alt=""img"">
                            </div>
                        </div>",0.2975,"",0,"",NA,"","images/map26_GnBu_scaleRev_orientDef_090.png","sad",1,26,26,"GnBu","orientDef","scaleRev","090",NA,NA
"","","","","","html-slider-response",46,246516,"0.0-42.0","u0jza37d61",30,NA,"<div style=""width:500px;"">
                            <p style=""font-size:50px; font-weight:bold;""
                            >sad</p>
                            <div style=""width:240px; margin: auto;"">
                                <img src=""images/map10_vanimo_scaleRev_orientDef_090.png"" style= ""width:200px""alt=""img"">
                            </div>
                        </div>",0.8175,"",0,"",NA,"","images/map10_vanimo_scaleRev_orientDef_090.png","sad",1,10,10,"vanimo","orientDef","scaleRev","090",NA,NA
"","","","","","html-slider-response",47,250083,"0.0-43.0","u0jza37d61",30,NA,"<div style=""width:500px;"">
                            <p style=""font-size:50px; font-weight:bold;""
                            >sad</p>
                            <div style=""width:240px; margin: auto;"">
                                <img src=""images/map05_Spectral_scaleRev_orientMir_090.png"" style= ""width:200px""alt=""img"">
                            </div>
                        </div>",0.4275,"",0,"",NA,"","images/map05_Spectral_scaleRev_orientMir_090.png","sad",1,5,5,"Spectral","orientMir","scaleRev","090",NA,NA
"","","","","","html-slider-response",48,252649,"0.0-44.0","u0jza37d61",30,NA,"<div style=""width:500px;"">
                            <p style=""font-size:50px; font-weight:bold;""
                            >sad</p>
                            <div style=""width:240px; margin: auto;"">
                                <img src=""images/map12_cividis_scaleRev_orientMir_270.png"" style= ""width:200px""alt=""img"">
                            </div>
                        </div>",0.5525,"",0,"",NA,"","images/map12_cividis_scaleRev_orientMir_270.png","sad",1,12,12,"cividis","orientMir","scaleRev","270",NA,NA
"","","","","","html-slider-response",49,254416,"0.0-45.0","u0jza37d61",30,NA,"<div style=""width:500px;"">
                            <p style=""font-size:50px; font-weight:bold;""
                            >sad</p>
                            <div style=""width:240px; margin: auto;"">
                                <img src=""images/map27_YlGn_scaleRev_orientDef_270.png"" style= ""width:200px""alt=""img"">
                            </div>
                        </div>",0.3025,"",0,"",NA,"","images/map27_YlGn_scaleRev_orientDef_270.png","sad",1,27,27,"YlGn","orientDef","scaleRev","270",NA,NA
"","","","","","html-slider-response",50,256318,"0.0-46.0","u0jza37d61",30,NA,"<div style=""width:500px;"">
                            <p style=""font-size:50px; font-weight:bold;""
                            >sad</p>
                            <div style=""width:240px; margin: auto;"">
                                <img src=""images/map02_RdGy_scaleDef_orientMir_000.png"" style= ""width:200px""alt=""img"">
                            </div>
                        </div>",0.8475,"",0,"",NA,"","images/map02_RdGy_scaleDef_orientMir_000.png","sad",1,2,2,"RdGy","orientMir","scaleDef","000",NA,NA
"","","","","","html-slider-response",51,258318,"0.0-47.0","u0jza37d61",30,NA,"<div style=""width:500px;"">
                            <p style=""font-size:50px; font-weight:bold;""
                            >sad</p>
                            <div style=""width:240px; margin: auto;"">
                                <img src=""images/map27_PiYG_scaleRev_orientMir_090.png"" style= ""width:200px""alt=""img"">
                            </div>
                        </div>",0.435,"",0,"",NA,"","images/map27_PiYG_scaleRev_orientMir_090.png","sad",1,27,27,"PiYG","orientMir","scaleRev","090",NA,NA
"","","","","","html-slider-response",52,260234,"0.0-48.0","u0jza37d61",30,NA,"<div style=""width:500px;"">
                            <p style=""font-size:50px; font-weight:bold;""
                            >sad</p>
                            <div style=""width:240px; margin: auto;"">
                                <img src=""images/map07_bwr_scaleRev_orientDef_090.png"" style= ""width:200px""alt=""img"">
                            </div>
                        </div>",0.3275,"",0,"",NA,"","images/map07_bwr_scaleRev_orientDef_090.png","sad",1,7,7,"bwr","orientDef","scaleRev","090",NA,NA
"","","","","","html-slider-response",53,261985,"0.0-49.0","u0jza37d61",30,NA,"<div style=""width:500px;"">
                            <p style=""font-size:50px; font-weight:bold;""
                            >sad</p>
                            <div style=""width:240px; margin: auto;"">
                                <img src=""images/map10_gist_earth_scaleDef_orientDef_180.png"" style= ""width:200px""alt=""img"">
                            </div>
                        </div>",0.375,"",0,"",NA,"","images/map10_gist_earth_scaleDef_orientDef_180.png","sad",1,10,10,"gist","scaleDef","earth","orientDef",NA,NA
"","","","","","html-slider-response",54,263617,"0.0-50.0","u0jza37d61",30,NA,"<div style=""width:500px;"">
                            <p style=""font-size:50px; font-weight:bold;""
                            >sad</p>
                            <div style=""width:240px; margin: auto;"">
                                <img src=""images/map27_PiYG_scaleDef_orientMir_000.png"" style= ""width:200px""alt=""img"">
                            </div>
                        </div>",0.305,"",0,"",NA,"","images/map27_PiYG_scaleDef_orientMir_000.png","sad",1,27,27,"PiYG","orientMir","scaleDef","000",NA,NA
"","","","","","html-slider-response",55,265186,"0.0-51.0","u0jza37d61",30,NA,"<div style=""width:500px;"">
                            <p style=""font-size:50px; font-weight:bold;""
                            >sad</p>
                            <div style=""width:240px; margin: auto;"">
                                <img src=""images/map12_inferno_scaleDef_orientDef_180.png"" style= ""width:200px""alt=""img"">
                            </div>
                        </div>",0.675,"",0,"",NA,"","images/map12_inferno_scaleDef_orientDef_180.png","sad",1,12,12,"inferno","orientDef","scaleDef","180",NA,NA
"","","","","","html-slider-response",56,267100,"0.0-52.0","u0jza37d61",30,NA,"<div style=""width:500px;"">
                            <p style=""font-size:50px; font-weight:bold;""
                            >sad</p>
                            <div style=""width:240px; margin: auto;"">
                                <img src=""images/map05_coolwarm_scaleDef_orientMir_180.png"" style= ""width:200px""alt=""img"">
                            </div>
                        </div>",0.1275,"",0,"",NA,"","images/map05_coolwarm_scaleDef_orientMir_180.png","sad",1,5,5,"coolwarm","orientMir","scaleDef","180",NA,NA
"","","","","","html-slider-response",57,268967,"0.0-53.0","u0jza37d61",30,NA,"<div style=""width:500px;"">
                            <p style=""font-size:50px; font-weight:bold;""
                            >sad</p>
                            <div style=""width:240px; margin: auto;"">
                                <img src=""images/map12_cividis_scaleDef_orientMir_180.png"" style= ""width:200px""alt=""img"">
                            </div>
                        </div>",0.895,"",0,"",NA,"","images/map12_cividis_scaleDef_orientMir_180.png","sad",1,12,12,"cividis","orientMir","scaleDef","180",NA,NA
"","","","","","html-button-response",58,274239,"0.0-54.0","u0jza37d61",30,4768,"<p>You are doing great!<br></br> You are halway done with the current block. When you are ready to continue, click the 'Continue' button.</p>",0.5,"",NA,"",NA,"","","",NA,NA,NA,"","","","",NA,NA
"","","","","","html-slider-response",59,277884,"0.0-55.0","u0jza37d61",30,NA,"<div style=""width:500px;"">
                            <p style=""font-size:50px; font-weight:bold;""
                            >sad</p>
                            <div style=""width:240px; margin: auto;"">
                                <img src=""images/map10_gist_earth_scaleRev_orientDef_270.png"" style= ""width:200px""alt=""img"">
                            </div>
                        </div>",0.5975,"",0,"",NA,"","images/map10_gist_earth_scaleRev_orientDef_270.png","sad",1,10,10,"gist","scaleRev","earth","orientDef",NA,NA
"","","","","","html-slider-response",60,281267,"0.0-56.0","u0jza37d61",30,NA,"<div style=""width:500px;"">
                            <p style=""font-size:50px; font-weight:bold;""
                            >sad</p>
                            <div style=""width:240px; margin: auto;"">
                                <img src=""images/map26_PuBuGn_scaleDef_orientMir_180.png"" style= ""width:200px""alt=""img"">
                            </div>
                        </div>",0.195,"",0,"",NA,"","images/map26_PuBuGn_scaleDef_orientMir_180.png","sad",1,26,26,"PuBuGn","orientMir","scaleDef","180",NA,NA
"","","","","","html-slider-response",61,283516,"0.0-57.0","u0jza37d61",30,NA,"<div style=""width:500px;"">
                            <p style=""font-size:50px; font-weight:bold;""
                            >sad</p>
                            <div style=""width:240px; margin: auto;"">
                                <img src=""images/map23_PuRd_scaleDef_orientDef_180.png"" style= ""width:200px""alt=""img"">
                            </div>
                        </div>",0.1575,"",0,"",NA,"","images/map23_PuRd_scaleDef_orientDef_180.png","sad",1,23,23,"PuRd","orientDef","scaleDef","180",NA,NA
"","","","","","html-slider-response",62,285800,"0.0-58.0","u0jza37d61",30,NA,"<div style=""width:500px;"">
                            <p style=""font-size:50px; font-weight:bold;""
                            >sad</p>
                            <div style=""width:240px; margin: auto;"">
                                <img src=""images/map23_OrRd_scaleRev_orientDef_090.png"" style= ""width:200px""alt=""img"">
                            </div>
                        </div>",0.625,"",0,"",NA,"","images/map23_OrRd_scaleRev_orientDef_090.png","sad",1,23,23,"OrRd","orientDef","scaleRev","090",NA,NA
"","","","","","html-slider-response",63,289885,"0.0-59.0","u0jza37d61",30,NA,"<div style=""width:500px;"">
                            <p style=""font-size:50px; font-weight:bold;""
                            >sad</p>
                            <div style=""width:240px; margin: auto;"">
                                <img src=""images/map15_Reds_scaleDef_orientDef_180.png"" style= ""width:200px""alt=""img"">
                            </div>
                        </div>",0.7475,"",0,"",NA,"","images/map15_Reds_scaleDef_orientDef_180.png","sad",1,15,15,"Reds","orientDef","scaleDef","180",NA,NA
"","","","","","html-slider-response",64,292385,"0.0-60.0","u0jza37d61",30,NA,"<div style=""width:500px;"">
                            <p style=""font-size:50px; font-weight:bold;""
                            >sad</p>
                            <div style=""width:240px; margin: auto;"">
                                <img src=""images/map02_RdBu_scaleRev_orientMir_270.png"" style= ""width:200px""alt=""img"">
                            </div>
                        </div>",0.315,"",0,"",NA,"","images/map02_RdBu_scaleRev_orientMir_270.png","sad",1,2,2,"RdBu","orientMir","scaleRev","270",NA,NA
"","","","","","html-slider-response",65,294634,"0.0-61.0","u0jza37d61",30,NA,"<div style=""width:500px;"">
                            <p style=""font-size:50px; font-weight:bold;""
                            >sad</p>
                            <div style=""width:240px; margin: auto;"">
                                <img src=""images/map23_BuPu_scaleDef_orientMir_180.png"" style= ""width:200px""alt=""img"">
                            </div>
                        </div>",0.65,"",0,"",NA,"","images/map23_BuPu_scaleDef_orientMir_180.png","sad",1,23,23,"BuPu","orientMir","scaleDef","180",NA,NA
"","","","","","html-slider-response",66,296549,"0.0-62.0","u0jza37d61",30,NA,"<div style=""width:500px;"">
                            <p style=""font-size:50px; font-weight:bold;""
                            >sad</p>
                            <div style=""width:240px; margin: auto;"">
                                <img src=""images/map26_PuBu_scaleDef_orientDef_180.png"" style= ""width:200px""alt=""img"">
                            </div>
                        </div>",0.665,"",0,"",NA,"","images/map26_PuBu_scaleDef_orientDef_180.png","sad",1,26,26,"PuBu","orientDef","scaleDef","180",NA,NA
"","","","","","html-slider-response",67,298249,"0.0-63.0","u0jza37d61",30,NA,"<div style=""width:500px;"">
                            <p style=""font-size:50px; font-weight:bold;""
                            >sad</p>
                            <div style=""width:240px; margin: auto;"">
                                <img src=""images/map13_Blues_scaleDef_orientMir_000.png"" style= ""width:200px""alt=""img"">
                            </div>
                        </div>",0.725,"",0,"",NA,"","images/map13_Blues_scaleDef_orientMir_000.png","sad",1,13,13,"Blues","orientMir","scaleDef","000",NA,NA
"","","","","","html-slider-response",68,300366,"0.0-64.0","u0jza37d61",30,NA,"<div style=""width:500px;"">
                            <p style=""font-size:50px; font-weight:bold;""
                            >sad</p>
                            <div style=""width:240px; margin: auto;"">
                                <img src=""images/map05_RdYlBu_scaleRev_orientDef_090.png"" style= ""width:200px""alt=""img"">
                            </div>
                        </div>",0.3,"",0,"",NA,"","images/map05_RdYlBu_scaleRev_orientDef_090.png","sad",1,5,5,"RdYlBu","orientDef","scaleRev","090",NA,NA
"","","","","","html-slider-response",69,302268,"0.0-65.0","u0jza37d61",30,NA,"<div style=""width:500px;"">
                            <p style=""font-size:50px; font-weight:bold;""
                            >sad</p>
                            <div style=""width:240px; margin: auto;"">
                                <img src=""images/map15_YlOrRd_scaleDef_orientMir_180.png"" style= ""width:200px""alt=""img"">
                            </div>
                        </div>",0.695,"",0,"",NA,"","images/map15_YlOrRd_scaleDef_orientMir_180.png","sad",1,15,15,"YlOrRd","orientMir","scaleDef","180",NA,NA
"","","","","","html-slider-response",70,304068,"0.0-66.0","u0jza37d61",30,NA,"<div style=""width:500px;"">
                            <p style=""font-size:50px; font-weight:bold;""
                            >sad</p>
                            <div style=""width:240px; margin: auto;"">
                                <img src=""images/map12_plasma_scaleRev_orientDef_090.png"" style= ""width:200px""alt=""img"">
                            </div>
                        </div>",0.3225,"",0,"",NA,"","images/map12_plasma_scaleRev_orientDef_090.png","sad",1,12,12,"plasma","orientDef","scaleRev","090",NA,NA
"","","","","","html-slider-response",71,305716,"0.0-67.0","u0jza37d61",30,NA,"<div style=""width:500px;"">
                            <p style=""font-size:50px; font-weight:bold;""
                            >sad</p>
                            <div style=""width:240px; margin: auto;"">
                                <img src=""images/map05_RdYlBu_scaleDef_orientDef_000.png"" style= ""width:200px""alt=""img"">
                            </div>
                        </div>",0.32,"",0,"",NA,"","images/map05_RdYlBu_scaleDef_orientDef_000.png","sad",1,5,5,"RdYlBu","orientDef","scaleDef","000",NA,NA
"","","","","","html-slider-response",72,309383,"0.0-68.0","u0jza37d61",30,NA,"<div style=""width:500px;"">
                            <p style=""font-size:50px; font-weight:bold;""
                            >sad</p>
                            <div style=""width:240px; margin: auto;"">
                                <img src=""images/map07_berlin_scaleDef_orientMir_000.png"" style= ""width:200px""alt=""img"">
                            </div>
                        </div>",0.4725,"",0,"",NA,"","images/map07_berlin_scaleDef_orientMir_000.png","sad",1,7,7,"berlin","orientMir","scaleDef","000",NA,NA
"","","","","","html-slider-response",73,313049,"0.0-69.0","u0jza37d61",30,NA,"<div style=""width:500px;"">
                            <p style=""font-size:50px; font-weight:bold;""
                            >sad</p>
                            <div style=""width:240px; margin: auto;"">
                                <img src=""images/map02_BrBG_scaleDef_orientDef_000.png"" style= ""width:200px""alt=""img"">
                            </div>
                        </div>",0.6175,"",0,"",NA,"","images/map02_BrBG_scaleDef_orientDef_000.png","sad",1,2,2,"BrBG","orientDef","scaleDef","000",NA,NA
"","","","","","html-slider-response",74,314753,"0.0-70.0","u0jza37d61",30,NA,"<div style=""width:500px;"">
                            <p style=""font-size:50px; font-weight:bold;""
                            >sad</p>
                            <div style=""width:240px; margin: auto;"">
                                <img src=""images/map15_YlOrBr_scaleRev_orientMir_090.png"" style= ""width:200px""alt=""img"">
                            </div>
                        </div>",0.4,"",0,"",NA,"","images/map15_YlOrBr_scaleRev_orientMir_090.png","sad",1,15,15,"YlOrBr","orientMir","scaleRev","090",NA,NA
"","","","","","html-slider-response",75,316482,"0.0-71.0","u0jza37d61",30,NA,"<div style=""width:500px;"">
                            <p style=""font-size:50px; font-weight:bold;""
                            >sad</p>
                            <div style=""width:240px; margin: auto;"">
                                <img src=""images/map23_RdPu_scaleRev_orientMir_090.png"" style= ""width:200px""alt=""img"">
                            </div>
                        </div>",0.3025,"",0,"",NA,"","images/map23_RdPu_scaleRev_orientMir_090.png","sad",1,23,23,"RdPu","orientMir","scaleRev","090",NA,NA
"","","","","","html-slider-response",76,318299,"0.0-72.0","u0jza37d61",30,NA,"<div style=""width:500px;"">
                            <p style=""font-size:50px; font-weight:bold;""
                            >sad</p>
                            <div style=""width:240px; margin: auto;"">
                                <img src=""images/map15_Reds_scaleRev_orientDef_270.png"" style= ""width:200px""alt=""img"">
                            </div>
                        </div>",0.1575,"",0,"",NA,"","images/map15_Reds_scaleRev_orientDef_270.png","sad",1,15,15,"Reds","orientDef","scaleRev","270",NA,NA
"","","","","","html-slider-response",77,320085,"0.0-73.0","u0jza37d61",30,NA,"<div style=""width:500px;"">
                            <p style=""font-size:50px; font-weight:bold;""
                            >sad</p>
                            <div style=""width:240px; margin: auto;"">
                                <img src=""images/map02_PuOr_scaleRev_orientDef_270.png"" style= ""width:200px""alt=""img"">
                            </div>
                        </div>",0.28,"",0,"",NA,"","images/map02_PuOr_scaleRev_orientDef_270.png","sad",1,2,2,"PuOr","orientDef","scaleRev","270",NA,NA
"","","","","","html-slider-response",78,321799,"0.0-74.0","u0jza37d61",30,NA,"<div style=""width:500px;"">
                            <p style=""font-size:50px; font-weight:bold;""
                            >sad</p>
                            <div style=""width:240px; margin: auto;"">
                                <img src=""images/map15_YlOrRd_scaleRev_orientMir_270.png"" style= ""width:200px""alt=""img"">
                            </div>
                        </div>",0.7325,"",0,"",NA,"","images/map15_YlOrRd_scaleRev_orientMir_270.png","sad",1,15,15,"YlOrRd","orientMir","scaleRev","270",NA,NA
"","","","","","html-slider-response",79,324800,"0.0-75.0","u0jza37d61",30,NA,"<div style=""width:500px;"">
                            <p style=""font-size:50px; font-weight:bold;""
                            >sad</p>
                            <div style=""width:240px; margin: auto;"">
                                <img src=""images/map05_RdYlGn_scaleRev_orientDef_270.png"" style= ""width:200px""alt=""img"">
                            </div>
                        </div>",0.41,"",0,"",NA,"","images/map05_RdYlGn_scaleRev_orientDef_270.png","sad",1,5,5,"RdYlGn","orientDef","scaleRev","270",NA,NA
"","","","","","html-slider-response",80,326449,"0.0-76.0","u0jza37d61",30,NA,"<div style=""width:500px;"">
                            <p style=""font-size:50px; font-weight:bold;""
                            >sad</p>
                            <div style=""width:240px; margin: auto;"">
                                <img src=""images/map15_Oranges_scaleRev_orientDef_090.png"" style= ""width:200px""alt=""img"">
                            </div>
                        </div>",0.6575,"",0,"",NA,"","images/map15_Oranges_scaleRev_orientDef_090.png","sad",1,15,15,"Oranges","orientDef","scaleRev","090",NA,NA
"","","","","","html-slider-response",81,328251,"0.0-77.0","u0jza37d61",30,NA,"<div style=""width:500px;"">
                            <p style=""font-size:50px; font-weight:bold;""
                            >sad</p>
                            <div style=""width:240px; margin: auto;"">
                                <img src=""images/map27_BuGn_scaleRev_orientDef_090.png"" style= ""width:200px""alt=""img"">
                            </div>
                        </div>",0.19,"",0,"",NA,"","images/map27_BuGn_scaleRev_orientDef_090.png","sad",1,27,27,"BuGn","orientDef","scaleRev","090",NA,NA
"","","","","","html-slider-response",82,329949,"0.0-78.0","u0jza37d61",30,NA,"<div style=""width:500px;"">
                            <p style=""font-size:50px; font-weight:bold;""
                            >sad</p>
                            <div style=""width:240px; margin: auto;"">
                                <img src=""images/map02_PuOr_scaleDef_orientDef_180.png"" style= ""width:200px""alt=""img"">
                            </div>
                        </div>",0.545,"",0,"",NA,"","images/map02_PuOr_scaleDef_orientDef_180.png","sad",1,2,2,"PuOr","orientDef","scaleDef","180",NA,NA
"","","","","","html-slider-response",83,331700,"0.0-79.0","u0jza37d61",30,NA,"<div style=""width:500px;"">
                            <p style=""font-size:50px; font-weight:bold;""
                            >sad</p>
                            <div style=""width:240px; margin: auto;"">
                                <img src=""images/map07_seismic_scaleDef_orientDef_180.png"" style= ""width:200px""alt=""img"">
                            </div>
                        </div>",0.4475,"",0,"",NA,"","images/map07_seismic_scaleDef_orientDef_180.png","sad",1,7,7,"seismic","orientDef","scaleDef","180",NA,NA
"","","","","","html-slider-response",84,334449,"0.0-80.0","u0jza37d61",30,NA,"<div style=""width:500px;"">
                            <p style=""font-size:50px; font-weight:bold;""
                            >sad</p>
                            <div style=""width:240px; margin: auto;"">
                                <img src=""images/map07_bwr_scaleDef_orientDef_000.png"" style= ""width:200px""alt=""img"">
                            </div>
                        </div>",0.2375,"",0,"",NA,"","images/map07_bwr_scaleDef_orientDef_000.png","sad",1,7,7,"bwr","orientDef","scaleDef","000",NA,NA
"","","","","","html-slider-response",85,337018,"0.0-81.0","u0jza37d61",30,NA,"<div style=""width:500px;"">
                            <p style=""font-size:50px; font-weight:bold;""
                            >sad</p>
                            <div style=""width:240px; margin: auto;"">
                                <img src=""images/map02_BrBG_scaleRev_orientDef_090.png"" style= ""width:200px""alt=""img"">
                            </div>
                        </div>",0.295,"",0,"",NA,"","images/map02_BrBG_scaleRev_orientDef_090.png","sad",1,2,2,"BrBG","orientDef","scaleRev","090",NA,NA
"","","","","","html-slider-response",86,338784,"0.0-82.0","u0jza37d61",30,NA,"<div style=""width:500px;"">
                            <p style=""font-size:50px; font-weight:bold;""
                            >sad</p>
                            <div style=""width:240px; margin: auto;"">
                                <img src=""images/map10_turbo_scaleRev_orientMir_090.png"" style= ""width:200px""alt=""img"">
                            </div>
                        </div>",0.3225,"",0,"",NA,"","images/map10_turbo_scaleRev_orientMir_090.png","sad",1,10,10,"turbo","orientMir","scaleRev","090",NA,NA
"","","","","","html-slider-response",87,397399,"0.0-83.0","u0jza37d61",30,NA,"<div style=""width:500px;"">
                            <p style=""font-size:50px; font-weight:bold;""
                            >sad</p>
                            <div style=""width:240px; margin: auto;"">
                                <img src=""images/map26_YlGnBu_scaleDef_orientMir_000.png"" style= ""width:200px""alt=""img"">
                            </div>
                        </div>",0.57,"",0,"",NA,"","images/map26_YlGnBu_scaleDef_orientMir_000.png","sad",1,26,26,"YlGnBu","orientMir","scaleDef","000",NA,NA
"","","","","","html-slider-response",88,398949,"0.0-84.0","u0jza37d61",30,NA,"<div style=""width:500px;"">
                            <p style=""font-size:50px; font-weight:bold;""
                            >sad</p>
                            <div style=""width:240px; margin: auto;"">
                                <img src=""images/map26_PuBuGn_scaleRev_orientMir_270.png"" style= ""width:200px""alt=""img"">
                            </div>
                        </div>",0.615,"",0,"",NA,"","images/map26_PuBuGn_scaleRev_orientMir_270.png","sad",1,26,26,"PuBuGn","orientMir","scaleRev","270",NA,NA
"","","","","","html-slider-response",89,400734,"0.0-85.0","u0jza37d61",30,NA,"<div style=""width:500px;"">
                            <p style=""font-size:50px; font-weight:bold;""
                            >sad</p>
                            <div style=""width:240px; margin: auto;"">
                                <img src=""images/map15_YlOrBr_scaleDef_orientMir_000.png"" style= ""width:200px""alt=""img"">
                            </div>
                        </div>",0.625,"",0,"",NA,"","images/map15_YlOrBr_scaleDef_orientMir_000.png","sad",1,15,15,"YlOrBr","orientMir","scaleDef","000",NA,NA
"","","","","","html-slider-response",90,402533,"0.0-86.0","u0jza37d61",30,NA,"<div style=""width:500px;"">
                            <p style=""font-size:50px; font-weight:bold;""
                            >sad</p>
                            <div style=""width:240px; margin: auto;"">
                                <img src=""images/map02_RdBu_scaleDef_orientMir_180.png"" style= ""width:200px""alt=""img"">
                            </div>
                        </div>",0.7,"",0,"",NA,"","images/map02_RdBu_scaleDef_orientMir_180.png","sad",1,2,2,"RdBu","orientMir","scaleDef","180",NA,NA
"","","","","","html-slider-response",91,404584,"0.0-87.0","u0jza37d61",30,NA,"<div style=""width:500px;"">
                            <p style=""font-size:50px; font-weight:bold;""
                            >sad</p>
                            <div style=""width:240px; margin: auto;"">
                                <img src=""images/map27_PRGn_scaleDef_orientMir_180.png"" style= ""width:200px""alt=""img"">
                            </div>
                        </div>",0.315,"",0,"",NA,"","images/map27_PRGn_scaleDef_orientMir_180.png","sad",1,27,27,"PRGn","orientMir","scaleDef","180",NA,NA
"","","","","","html-slider-response",92,406268,"0.0-88.0","u0jza37d61",30,NA,"<div style=""width:500px;"">
                            <p style=""font-size:50px; font-weight:bold;""
                            >sad</p>
                            <div style=""width:240px; margin: auto;"">
                                <img src=""images/map26_YlGnBu_scaleRev_orientMir_090.png"" style= ""width:200px""alt=""img"">
                            </div>
                        </div>",0.6575,"",0,"",NA,"","images/map26_YlGnBu_scaleRev_orientMir_090.png","sad",1,26,26,"YlGnBu","orientMir","scaleRev","090",NA,NA
"","","","","","html-slider-response",93,408183,"0.0-89.0","u0jza37d61",30,NA,"<div style=""width:500px;"">
                            <p style=""font-size:50px; font-weight:bold;""
                            >sad</p>
                            <div style=""width:240px; margin: auto;"">
                                <img src=""images/map12_inferno_scaleRev_orientDef_270.png"" style= ""width:200px""alt=""img"">
                            </div>
                        </div>",0.615,"",0,"",NA,"","images/map12_inferno_scaleRev_orientDef_270.png","sad",1,12,12,"inferno","orientDef","scaleRev","270",NA,NA
"","","","","","html-slider-response",94,410001,"0.0-90.0","u0jza37d61",30,NA,"<div style=""width:500px;"">
                            <p style=""font-size:50px; font-weight:bold;""
                            >sad</p>
                            <div style=""width:240px; margin: auto;"">
                                <img src=""images/map13_Purples_scaleRev_orientDef_270.png"" style= ""width:200px""alt=""img"">
                            </div>
                        </div>",0.3625,"",0,"",NA,"","images/map13_Purples_scaleRev_orientDef_270.png","sad",1,13,13,"Purples","orientDef","scaleRev","270",NA,NA
"","","","","","html-slider-response",95,411867,"0.0-91.0","u0jza37d61",30,NA,"<div style=""width:500px;"">
                            <p style=""font-size:50px; font-weight:bold;""
                            >sad</p>
                            <div style=""width:240px; margin: auto;"">
                                <img src=""images/map15_Oranges_scaleDef_orientDef_000.png"" style= ""width:200px""alt=""img"">
                            </div>
                        </div>",0.6225,"",0,"",NA,"","images/map15_Oranges_scaleDef_orientDef_000.png","sad",1,15,15,"Oranges","orientDef","scaleDef","000",NA,NA
"","","","","","html-slider-response",96,413766,"0.0-92.0","u0jza37d61",30,NA,"<div style=""width:500px;"">
                            <p style=""font-size:50px; font-weight:bold;""
                            >sad</p>
                            <div style=""width:240px; margin: auto;"">
                                <img src=""images/map05_coolwarm_scaleRev_orientMir_270.png"" style= ""width:200px""alt=""img"">
                            </div>
                        </div>",0.165,"",0,"",NA,"","images/map05_coolwarm_scaleRev_orientMir_270.png","sad",1,5,5,"coolwarm","orientMir","scaleRev","270",NA,NA
"","","","","","html-slider-response",97,415800,"0.0-93.0","u0jza37d61",30,NA,"<div style=""width:500px;"">
                            <p style=""font-size:50px; font-weight:bold;""
                            >sad</p>
                            <div style=""width:240px; margin: auto;"">
                                <img src=""images/map10_turbo_scaleDef_orientMir_000.png"" style= ""width:200px""alt=""img"">
                            </div>
                        </div>",0.195,"",0,"",NA,"","images/map10_turbo_scaleDef_orientMir_000.png","sad",1,10,10,"turbo","orientMir","scaleDef","000",NA,NA
"","","","","","html-slider-response",98,418016,"0.0-94.0","u0jza37d61",30,NA,"<div style=""width:500px;"">
                            <p style=""font-size:50px; font-weight:bold;""
                            >sad</p>
                            <div style=""width:240px; margin: auto;"">
                                <img src=""images/map10_viridis_scaleRev_orientMir_270.png"" style= ""width:200px""alt=""img"">
                            </div>
                        </div>",0.165,"",0,"",NA,"","images/map10_viridis_scaleRev_orientMir_270.png","sad",1,10,10,"viridis","orientMir","scaleRev","270",NA,NA
"","","","","","html-button-response",99,424272,"0.0-95.0","u0jza37d61",30,5753,"<p>Great Job! You've finished block 1.<br></br> You have 4 block(s) left to go.<br></br></p>",0.5,"",NA,"",NA,"","","",NA,NA,NA,"","","","",NA,NA
"","","","","","html-button-response",100,426505,"0.0-96.0","u0jza37d61",30,2232,"<p>In this block of trials, you will be asked to rate how much you associate each map with:</p > <p style = 'font-size:150%; font-weight: bold'>disgust</p><br></br>",0.5,"",NA,"",NA,"","","",NA,NA,NA,"","","","",NA,NA
"","","","","","html-slider-response",101,431617,"0.0-97.0","u0jza37d61",30,NA,"<div style=""width:500px;"">
                            <p style=""font-size:50px; font-weight:bold;""
                            >disgust</p>
                            <div style=""width:240px; margin: auto;"">
                                <img src=""images/map10_vanimo_scaleDef_orientDef_000.png"" style= ""width:200px""alt=""img"">
                            </div>
                        </div>",1,"",0,"",NA,"","images/map10_vanimo_scaleDef_orientDef_000.png","disgust",1,10,10,"vanimo","orientDef","scaleDef","000",NA,NA
"","","","","","html-slider-response",102,433884,"0.0-98.0","u0jza37d61",30,NA,"<div style=""width:500px;"">
                            <p style=""font-size:50px; font-weight:bold;""
                            >disgust</p>
                            <div style=""width:240px; margin: auto;"">
                                <img src=""images/map26_GnBu_scaleDef_orientDef_000.png"" style= ""width:200px""alt=""img"">
                            </div>
                        </div>",0.185,"",0,"",NA,"","images/map26_GnBu_scaleDef_orientDef_000.png","disgust",1,26,26,"GnBu","orientDef","scaleDef","000",NA,NA
"","","","","","html-slider-response",103,438184,"0.0-99.0","u0jza37d61",30,NA,"<div style=""width:500px;"">
                            <p style=""font-size:50px; font-weight:bold;""
                            >disgust</p>
                            <div style=""width:240px; margin: auto;"">
                                <img src=""images/map10_viridis_scaleRev_orientMir_270.png"" style= ""width:200px""alt=""img"">
                            </div>
                        </div>",0.715,"",0,"",NA,"","images/map10_viridis_scaleRev_orientMir_270.png","disgust",1,10,10,"viridis","orientMir","scaleRev","270",NA,NA
"","","","","","html-slider-response",104,439849,"0.0-100.0","u0jza37d61",30,NA,"<div style=""width:500px;"">
                            <p style=""font-size:50px; font-weight:bold;""
                            >disgust</p>
                            <div style=""width:240px; margin: auto;"">
                                <img src=""images/map13_Purples_scaleRev_orientDef_270.png"" style= ""width:200px""alt=""img"">
                            </div>
                        </div>",0.145,"",0,"",NA,"","images/map13_Purples_scaleRev_orientDef_270.png","disgust",1,13,13,"Purples","orientDef","scaleRev","270",NA,NA
"","","","","","html-slider-response",105,442500,"0.0-101.0","u0jza37d61",30,NA,"<div style=""width:500px;"">
                            <p style=""font-size:50px; font-weight:bold;""
                            >disgust</p>
                            <div style=""width:240px; margin: auto;"">
                                <img src=""images/map15_YlOrBr_scaleDef_orientMir_000.png"" style= ""width:200px""alt=""img"">
                            </div>
                        </div>",0.73,"",0,"",NA,"","images/map15_YlOrBr_scaleDef_orientMir_000.png","disgust",1,15,15,"YlOrBr","orientMir","scaleDef","000",NA,NA
"","","","","","html-slider-response",106,444601,"0.0-102.0","u0jza37d61",30,NA,"<div style=""width:500px;"">
                            <p style=""font-size:50px; font-weight:bold;""
                            >disgust</p>
                            <div style=""width:240px; margin: auto;"">
                                <img src=""images/map05_RdYlGn_scaleRev_orientDef_270.png"" style= ""width:200px""alt=""img"">
                            </div>
                        </div>",0.795,"",0,"",NA,"","images/map05_RdYlGn_scaleRev_orientDef_270.png","disgust",1,5,5,"RdYlGn","orientDef","scaleRev","270",NA,NA
"","","","","","html-slider-response",107,448400,"0.0-103.0","u0jza37d61",30,NA,"<div style=""width:500px;"">
                            <p style=""font-size:50px; font-weight:bold;""
                            >disgust</p>
                            <div style=""width:240px; margin: auto;"">
                                <img src=""images/map13_Greys_scaleRev_orientDef_090.png"" style= ""width:200px""alt=""img"">
                            </div>
                        </div>",0.5325,"",0,"",NA,"","images/map13_Greys_scaleRev_orientDef_090.png","disgust",1,13,13,"Greys","orientDef","scaleRev","090",NA,NA
"","","","","","html-slider-response",108,450300,"0.0-104.0","u0jza37d61",30,NA,"<div style=""width:500px;"">
                            <p style=""font-size:50px; font-weight:bold;""
                            >disgust</p>
                            <div style=""width:240px; margin: auto;"">
                                <img src=""images/map27_YlGn_scaleDef_orientDef_180.png"" style= ""width:200px""alt=""img"">
                            </div>
                        </div>",0.915,"",0,"",NA,"","images/map27_YlGn_scaleDef_orientDef_180.png","disgust",1,27,27,"YlGn","orientDef","scaleDef","180",NA,NA
"","","","","","html-slider-response",109,452200,"0.0-105.0","u0jza37d61",30,NA,"<div style=""width:500px;"">
                            <p style=""font-size:50px; font-weight:bold;""
                            >disgust</p>
                            <div style=""width:240px; margin: auto;"">
                                <img src=""images/map07_seismic_scaleDef_orientDef_180.png"" style= ""width:200px""alt=""img"">
                            </div>
                        </div>",0.185,"",0,"",NA,"","images/map07_seismic_scaleDef_orientDef_180.png","disgust",1,7,7,"seismic","orientDef","scaleDef","180",NA,NA
"","","","","","html-slider-response",110,455334,"0.0-106.0","u0jza37d61",30,NA,"<div style=""width:500px;"">
                            <p style=""font-size:50px; font-weight:bold;""
                            >disgust</p>
                            <div style=""width:240px; margin: auto;"">
                                <img src=""images/map26_YlGnBu_scaleRev_orientMir_090.png"" style= ""width:200px""alt=""img"">
                            </div>
                        </div>",0.365,"",0,"",NA,"","images/map26_YlGnBu_scaleRev_orientMir_090.png","disgust",1,26,26,"YlGnBu","orientMir","scaleRev","090",NA,NA
"","","","","","html-slider-response",111,458383,"0.0-107.0","u0jza37d61",30,NA,"<div style=""width:500px;"">
                            <p style=""font-size:50px; font-weight:bold;""
                            >disgust</p>
                            <div style=""width:240px; margin: auto;"">
                                <img src=""images/map10_turbo_scaleRev_orientMir_090.png"" style= ""width:200px""alt=""img"">
                            </div>
                        </div>",0.7775,"",0,"",NA,"","images/map10_turbo_scaleRev_orientMir_090.png","disgust",1,10,10,"turbo","orientMir","scaleRev","090",NA,NA
"","","","","","html-slider-response",112,460549,"0.0-108.0","u0jza37d61",30,NA,"<div style=""width:500px;"">
                            <p style=""font-size:50px; font-weight:bold;""
                            >disgust</p>
                            <div style=""width:240px; margin: auto;"">
                                <img src=""images/map26_PuBuGn_scaleDef_orientMir_180.png"" style= ""width:200px""alt=""img"">
                            </div>
                        </div>",0.285,"",0,"",NA,"","images/map26_PuBuGn_scaleDef_orientMir_180.png","disgust",1,26,26,"PuBuGn","orientMir","scaleDef","180",NA,NA
"","","","","","html-slider-response",113,462349,"0.0-109.0","u0jza37d61",30,NA,"<div style=""width:500px;"">
                            <p style=""font-size:50px; font-weight:bold;""
                            >disgust</p>
                            <div style=""width:240px; margin: auto;"">
                                <img src=""images/map13_Greens_scaleDef_orientMir_180.png"" style= ""width:200px""alt=""img"">
                            </div>
                        </div>",0.8725,"",0,"",NA,"","images/map13_Greens_scaleDef_orientMir_180.png","disgust",1,13,13,"Greens","orientMir","scaleDef","180",NA,NA
"","","","","","html-slider-response",114,464468,"0.0-110.0","u0jza37d61",30,NA,"<div style=""width:500px;"">
                            <p style=""font-size:50px; font-weight:bold;""
                            >disgust</p>
                            <div style=""width:240px; margin: auto;"">
                                <img src=""images/map12_plasma_scaleRev_orientDef_090.png"" style= ""width:200px""alt=""img"">
                            </div>
                        </div>",0.8175,"",0,"",NA,"","images/map12_plasma_scaleRev_orientDef_090.png","disgust",1,12,12,"plasma","orientDef","scaleRev","090",NA,NA
"","","","","","html-slider-response",115,466366,"0.0-111.0","u0jza37d61",30,NA,"<div style=""width:500px;"">
                            <p style=""font-size:50px; font-weight:bold;""
                            >disgust</p>
                            <div style=""width:240px; margin: auto;"">
                                <img src=""images/map23_PuRd_scaleDef_orientDef_180.png"" style= ""width:200px""alt=""img"">
                            </div>
                        </div>",0,"",0,"",NA,"","images/map23_PuRd_scaleDef_orientDef_180.png","disgust",1,23,23,"PuRd","orientDef","scaleDef","180",NA,NA
"","","","","","html-slider-response",116,468417,"0.0-112.0","u0jza37d61",30,NA,"<div style=""width:500px;"">
                            <p style=""font-size:50px; font-weight:bold;""
                            >disgust</p>
                            <div style=""width:240px; margin: auto;"">
                                <img src=""images/map02_BrBG_scaleRev_orientDef_090.png"" style= ""width:200px""alt=""img"">
                            </div>
                        </div>",1,"",0,"",NA,"","images/map02_BrBG_scaleRev_orientDef_090.png","disgust",1,2,2,"BrBG","orientDef","scaleRev","090",NA,NA
"","","","","","html-slider-response",117,470232,"0.0-113.0","u0jza37d61",30,NA,"<div style=""width:500px;"">
                            <p style=""font-size:50px; font-weight:bold;""
                            >disgust</p>
                            <div style=""width:240px; margin: auto;"">
                                <img src=""images/map12_cividis_scaleRev_orientMir_270.png"" style= ""width:200px""alt=""img"">
                            </div>
                        </div>",1,"",0,"",NA,"","images/map12_cividis_scaleRev_orientMir_270.png","disgust",1,12,12,"cividis","orientMir","scaleRev","270",NA,NA
"","","","","","html-slider-response",118,471915,"0.0-114.0","u0jza37d61",30,NA,"<div style=""width:500px;"">
                            <p style=""font-size:50px; font-weight:bold;""
                            >disgust</p>
                            <div style=""width:240px; margin: auto;"">
                                <img src=""images/map15_YlOrRd_scaleRev_orientMir_270.png"" style= ""width:200px""alt=""img"">
                            </div>
                        </div>",1,"",0,"",NA,"","images/map15_YlOrRd_scaleRev_orientMir_270.png","disgust",1,15,15,"YlOrRd","orientMir","scaleRev","270",NA,NA
"","","","","","html-slider-response",119,473848,"0.0-115.0","u0jza37d61",30,NA,"<div style=""width:500px;"">
                            <p style=""font-size:50px; font-weight:bold;""
                            >disgust</p>
                            <div style=""width:240px; margin: auto;"">
                                <img src=""images/map15_Reds_scaleDef_orientDef_180.png"" style= ""width:200px""alt=""img"">
                            </div>
                        </div>",1,"",0,"",NA,"","images/map15_Reds_scaleDef_orientDef_180.png","disgust",1,15,15,"Reds","orientDef","scaleDef","180",NA,NA
"","","","","","html-slider-response",120,476331,"0.0-116.0","u0jza37d61",30,NA,"<div style=""width:500px;"">
                            <p style=""font-size:50px; font-weight:bold;""
                            >disgust</p>
                            <div style=""width:240px; margin: auto;"">
                                <img src=""images/map26_YlGnBu_scaleDef_orientMir_000.png"" style= ""width:200px""alt=""img"">
                            </div>
                        </div>",0.25,"",0,"",NA,"","images/map26_YlGnBu_scaleDef_orientMir_000.png","disgust",1,26,26,"YlGnBu","orientMir","scaleDef","000",NA,NA
"","","","","","html-slider-response",121,478534,"0.0-117.0","u0jza37d61",30,NA,"<div style=""width:500px;"">
                            <p style=""font-size:50px; font-weight:bold;""
                            >disgust</p>
                            <div style=""width:240px; margin: auto;"">
                                <img src=""images/map07_managua_scaleDef_orientMir_180.png"" style= ""width:200px""alt=""img"">
                            </div>
                        </div>",0.305,"",0,"",NA,"","images/map07_managua_scaleDef_orientMir_180.png","disgust",1,7,7,"managua","orientMir","scaleDef","180",NA,NA
"","","","","","html-slider-response",122,480499,"0.0-118.0","u0jza37d61",30,NA,"<div style=""width:500px;"">
                            <p style=""font-size:50px; font-weight:bold;""
                            >disgust</p>
                            <div style=""width:240px; margin: auto;"">
                                <img src=""images/map05_RdYlBu_scaleRev_orientDef_090.png"" style= ""width:200px""alt=""img"">
                            </div>
                        </div>",0.225,"",0,"",NA,"","images/map05_RdYlBu_scaleRev_orientDef_090.png","disgust",1,5,5,"RdYlBu","orientDef","scaleRev","090",NA,NA
"","","","","","html-slider-response",123,482201,"0.0-119.0","u0jza37d61",30,NA,"<div style=""width:500px;"">
                            <p style=""font-size:50px; font-weight:bold;""
                            >disgust</p>
                            <div style=""width:240px; margin: auto;"">
                                <img src=""images/map05_RdYlBu_scaleDef_orientDef_000.png"" style= ""width:200px""alt=""img"">
                            </div>
                        </div>",0.2475,"",0,"",NA,"","images/map05_RdYlBu_scaleDef_orientDef_000.png","disgust",1,5,5,"RdYlBu","orientDef","scaleDef","000",NA,NA
"","","","","","html-slider-response",124,483950,"0.0-120.0","u0jza37d61",30,NA,"<div style=""width:500px;"">
                            <p style=""font-size:50px; font-weight:bold;""
                            >disgust</p>
                            <div style=""width:240px; margin: auto;"">
                                <img src=""images/map23_OrRd_scaleRev_orientDef_090.png"" style= ""width:200px""alt=""img"">
                            </div>
                        </div>",0.695,"",0,"",NA,"","images/map23_OrRd_scaleRev_orientDef_090.png","disgust",1,23,23,"OrRd","orientDef","scaleRev","090",NA,NA
"","","","","","html-slider-response",125,485517,"0.0-121.0","u0jza37d61",30,NA,"<div style=""width:500px;"">
                            <p style=""font-size:50px; font-weight:bold;""
                            >disgust</p>
                            <div style=""width:240px; margin: auto;"">
                                <img src=""images/map23_OrRd_scaleDef_orientDef_000.png"" style= ""width:200px""alt=""img"">
                            </div>
                        </div>",0.7325,"",0,"",NA,"","images/map23_OrRd_scaleDef_orientDef_000.png","disgust",1,23,23,"OrRd","orientDef","scaleDef","000",NA,NA
"","","","","","html-slider-response",126,487833,"0.0-122.0","u0jza37d61",30,NA,"<div style=""width:500px;"">
                            <p style=""font-size:50px; font-weight:bold;""
                            >disgust</p>
                            <div style=""width:240px; margin: auto;"">
                                <img src=""images/map12_magma_scaleDef_orientMir_000.png"" style= ""width:200px""alt=""img"">
                            </div>
                        </div>",0.2925,"",0,"",NA,"","images/map12_magma_scaleDef_orientMir_000.png","disgust",1,12,12,"magma","orientMir","scaleDef","000",NA,NA
"","","","","","html-slider-response",127,489533,"0.0-123.0","u0jza37d61",30,NA,"<div style=""width:500px;"">
                            <p style=""font-size:50px; font-weight:bold;""
                            >disgust</p>
                            <div style=""width:240px; margin: auto;"">
                                <img src=""images/map13_Greens_scaleRev_orientMir_270.png"" style= ""width:200px""alt=""img"">
                            </div>
                        </div>",1,"",0,"",NA,"","images/map13_Greens_scaleRev_orientMir_270.png","disgust",1,13,13,"Greens","orientMir","scaleRev","270",NA,NA
"","","","","","html-slider-response",128,491165,"0.0-124.0","u0jza37d61",30,NA,"<div style=""width:500px;"">
                            <p style=""font-size:50px; font-weight:bold;""
                            >disgust</p>
                            <div style=""width:240px; margin: auto;"">
                                <img src=""images/map27_PiYG_scaleDef_orientMir_000.png"" style= ""width:200px""alt=""img"">
                            </div>
                        </div>",1,"",0,"",NA,"","images/map27_PiYG_scaleDef_orientMir_000.png","disgust",1,27,27,"PiYG","orientMir","scaleDef","000",NA,NA
"","","","","","html-slider-response",129,492849,"0.0-125.0","u0jza37d61",30,NA,"<div style=""width:500px;"">
                            <p style=""font-size:50px; font-weight:bold;""
                            >disgust</p>
                            <div style=""width:240px; margin: auto;"">
                                <img src=""images/map05_RdYlGn_scaleDef_orientDef_180.png"" style= ""width:200px""alt=""img"">
                            </div>
                        </div>",1,"",0,"",NA,"","images/map05_RdYlGn_scaleDef_orientDef_180.png","disgust",1,5,5,"RdYlGn","orientDef","scaleDef","180",NA,NA
"","","","","","html-slider-response",130,494518,"0.0-126.0","u0jza37d61",30,NA,"<div style=""width:500px;"">
                            <p style=""font-size:50px; font-weight:bold;""
                            >disgust</p>
                            <div style=""width:240px; margin: auto;"">
                                <img src=""images/map05_coolwarm_scaleRev_orientMir_270.png"" style= ""width:200px""alt=""img"">
                            </div>
                        </div>",0.155,"",0,"",NA,"","images/map05_coolwarm_scaleRev_orientMir_270.png","disgust",1,5,5,"coolwarm","orientMir","scaleRev","270",NA,NA
"","","","","","html-slider-response",131,496217,"0.0-127.0","u0jza37d61",30,NA,"<div style=""width:500px;"">
                            <p style=""font-size:50px; font-weight:bold;""
                            >disgust</p>
                            <div style=""width:240px; margin: auto;"">
                                <img src=""images/map23_RdPu_scaleDef_orientMir_000.png"" style= ""width:200px""alt=""img"">
                            </div>
                        </div>",0.0225,"",0,"",NA,"","images/map23_RdPu_scaleDef_orientMir_000.png","disgust",1,23,23,"RdPu","orientMir","scaleDef","000",NA,NA
"","","","","","html-slider-response",132,497917,"0.0-128.0","u0jza37d61",30,NA,"<div style=""width:500px;"">
                            <p style=""font-size:50px; font-weight:bold;""
                            >disgust</p>
                            <div style=""width:240px; margin: auto;"">
                                <img src=""images/map27_BuGn_scaleDef_orientDef_000.png"" style= ""width:200px""alt=""img"">
                            </div>
                        </div>",0.96,"",0,"",NA,"","images/map27_BuGn_scaleDef_orientDef_000.png","disgust",1,27,27,"BuGn","orientDef","scaleDef","000",NA,NA
"","","","","","html-slider-response",133,499567,"0.0-129.0","u0jza37d61",30,NA,"<div style=""width:500px;"">
                            <p style=""font-size:50px; font-weight:bold;""
                            >disgust</p>
                            <div style=""width:240px; margin: auto;"">
                                <img src=""images/map05_coolwarm_scaleDef_orientMir_180.png"" style= ""width:200px""alt=""img"">
                            </div>
                        </div>",0.1025,"",0,"",NA,"","images/map05_coolwarm_scaleDef_orientMir_180.png","disgust",1,5,5,"coolwarm","orientMir","scaleDef","180",NA,NA
"","","","","","html-slider-response",134,501733,"0.0-130.0","u0jza37d61",30,NA,"<div style=""width:500px;"">
                            <p style=""font-size:50px; font-weight:bold;""
                            >disgust</p>
                            <div style=""width:240px; margin: auto;"">
                                <img src=""images/map07_berlin_scaleDef_orientMir_000.png"" style= ""width:200px""alt=""img"">
                            </div>
                        </div>",0.4025,"",0,"",NA,"","images/map07_berlin_scaleDef_orientMir_000.png","disgust",1,7,7,"berlin","orientMir","scaleDef","000",NA,NA
"","","","","","html-slider-response",135,503499,"0.0-131.0","u0jza37d61",30,NA,"<div style=""width:500px;"">
                            <p style=""font-size:50px; font-weight:bold;""
                            >disgust</p>
                            <div style=""width:240px; margin: auto;"">
                                <img src=""images/map07_bwr_scaleRev_orientDef_090.png"" style= ""width:200px""alt=""img"">
                            </div>
                        </div>",0.13,"",0,"",NA,"","images/map07_bwr_scaleRev_orientDef_090.png","disgust",1,7,7,"bwr","orientDef","scaleRev","090",NA,NA
"","","","","","html-slider-response",136,505200,"0.0-132.0","u0jza37d61",30,NA,"<div style=""width:500px;"">
                            <p style=""font-size:50px; font-weight:bold;""
                            >disgust</p>
                            <div style=""width:240px; margin: auto;"">
                                <img src=""images/map10_turbo_scaleDef_orientMir_000.png"" style= ""width:200px""alt=""img"">
                            </div>
                        </div>",0.79,"",0,"",NA,"","images/map10_turbo_scaleDef_orientMir_000.png","disgust",1,10,10,"turbo","orientMir","scaleDef","000",NA,NA
"","","","","","html-slider-response",137,506832,"0.0-133.0","u0jza37d61",30,NA,"<div style=""width:500px;"">
                            <p style=""font-size:50px; font-weight:bold;""
                            >disgust</p>
                            <div style=""width:240px; margin: auto;"">
                                <img src=""images/map15_Oranges_scaleDef_orientDef_000.png"" style= ""width:200px""alt=""img"">
                            </div>
                        </div>",0.6425,"",0,"",NA,"","images/map15_Oranges_scaleDef_orientDef_000.png","disgust",1,15,15,"Oranges","orientDef","scaleDef","000",NA,NA
"","","","","","html-slider-response",138,508849,"0.0-134.0","u0jza37d61",30,NA,"<div style=""width:500px;"">
                            <p style=""font-size:50px; font-weight:bold;""
                            >disgust</p>
                            <div style=""width:240px; margin: auto;"">
                                <img src=""images/map23_RdPu_scaleRev_orientMir_090.png"" style= ""width:200px""alt=""img"">
                            </div>
                        </div>",0.115,"",0,"",NA,"","images/map23_RdPu_scaleRev_orientMir_090.png","disgust",1,23,23,"RdPu","orientMir","scaleRev","090",NA,NA
"","","","","","html-slider-response",139,589884,"0.0-135.0","u0jza37d61",30,NA,"<div style=""width:500px;"">
                            <p style=""font-size:50px; font-weight:bold;""
                            >disgust</p>
                            <div style=""width:240px; margin: auto;"">
                                <img src=""images/map07_managua_scaleRev_orientMir_270.png"" style= ""width:200px""alt=""img"">
                            </div>
                        </div>",0.605,"",0,"",NA,"","images/map07_managua_scaleRev_orientMir_270.png","disgust",1,7,7,"managua","orientMir","scaleRev","270",NA,NA
"","","","","","html-slider-response",140,591634,"0.0-136.0","u0jza37d61",30,NA,"<div style=""width:500px;"">
                            <p style=""font-size:50px; font-weight:bold;""
                            >disgust</p>
                            <div style=""width:240px; margin: auto;"">
                                <img src=""images/map02_PuOr_scaleDef_orientDef_180.png"" style= ""width:200px""alt=""img"">
                            </div>
                        </div>",0.7275,"",0,"",NA,"","images/map02_PuOr_scaleDef_orientDef_180.png","disgust",1,2,2,"PuOr","orientDef","scaleDef","180",NA,NA
"","","","","","html-button-response",141,606355,"0.0-137.0","u0jza37d61",30,14218,"<p>You are doing great!<br></br> You are halway done with the current block. When you are ready to continue, click the 'Continue' button.</p>",0.5,"",NA,"",NA,"","","",NA,NA,NA,"","","","",NA,NA
"","","","","","html-slider-response",142,608334,"0.0-138.0","u0jza37d61",30,NA,"<div style=""width:500px;"">
                            <p style=""font-size:50px; font-weight:bold;""
                            >disgust</p>
                            <div style=""width:240px; margin: auto;"">
                                <img src=""images/map26_PuBuGn_scaleRev_orientMir_270.png"" style= ""width:200px""alt=""img"">
                            </div>
                        </div>",0.3675,"",0,"",NA,"","images/map26_PuBuGn_scaleRev_orientMir_270.png","disgust",1,26,26,"PuBuGn","orientMir","scaleRev","270",NA,NA
"","","","","","html-slider-response",143,610249,"0.0-139.0","u0jza37d61",30,NA,"<div style=""width:500px;"">
                            <p style=""font-size:50px; font-weight:bold;""
                            >disgust</p>
                            <div style=""width:240px; margin: auto;"">
                                <img src=""images/map07_bwr_scaleDef_orientDef_000.png"" style= ""width:200px""alt=""img"">
                            </div>
                        </div>",0.1575,"",0,"",NA,"","images/map07_bwr_scaleDef_orientDef_000.png","disgust",1,7,7,"bwr","orientDef","scaleDef","000",NA,NA
"","","","","","html-slider-response",144,611916,"0.0-140.0","u0jza37d61",30,NA,"<div style=""width:500px;"">
                            <p style=""font-size:50px; font-weight:bold;""
                            >disgust</p>
                            <div style=""width:240px; margin: auto;"">
                                <img src=""images/map10_vanimo_scaleRev_orientDef_090.png"" style= ""width:200px""alt=""img"">
                            </div>
                        </div>",1,"",0,"",NA,"","images/map10_vanimo_scaleRev_orientDef_090.png","disgust",1,10,10,"vanimo","orientDef","scaleRev","090",NA,NA
"","","","","","html-slider-response",145,613667,"0.0-141.0","u0jza37d61",30,NA,"<div style=""width:500px;"">
                            <p style=""font-size:50px; font-weight:bold;""
                            >disgust</p>
                            <div style=""width:240px; margin: auto;"">
                                <img src=""images/map23_BuPu_scaleDef_orientMir_180.png"" style= ""width:200px""alt=""img"">
                            </div>
                        </div>",0.5475,"",0,"",NA,"","images/map23_BuPu_scaleDef_orientMir_180.png","disgust",1,23,23,"BuPu","orientMir","scaleDef","180",NA,NA
"","","","","","html-slider-response",146,615201,"0.0-142.0","u0jza37d61",30,NA,"<div style=""width:500px;"">
                            <p style=""font-size:50px; font-weight:bold;""
                            >disgust</p>
                            <div style=""width:240px; margin: auto;"">
                                <img src=""images/map13_Blues_scaleDef_orientMir_000.png"" style= ""width:200px""alt=""img"">
                            </div>
                        </div>",0.245,"",0,"",NA,"","images/map13_Blues_scaleDef_orientMir_000.png","disgust",1,13,13,"Blues","orientMir","scaleDef","000",NA,NA
"","","","","","html-slider-response",147,616815,"0.0-143.0","u0jza37d61",30,NA,"<div style=""width:500px;"">
                            <p style=""font-size:50px; font-weight:bold;""
                            >disgust</p>
                            <div style=""width:240px; margin: auto;"">
                                <img src=""images/map23_PuRd_scaleRev_orientDef_270.png"" style= ""width:200px""alt=""img"">
                            </div>
                        </div>",0,"",0,"",NA,"","images/map23_PuRd_scaleRev_orientDef_270.png","disgust",1,23,23,"PuRd","orientDef","scaleRev","270",NA,NA
"","","","","","html-slider-response",148,620634,"0.0-144.0","u0jza37d61",30,NA,"<div style=""width:500px;"">
                            <p style=""font-size:50px; font-weight:bold;""
                            >disgust</p>
                            <div style=""width:240px; margin: auto;"">
                                <img src=""images/map15_YlOrBr_scaleRev_orientMir_090.png"" style= ""width:200px""alt=""img"">
                            </div>
                        </div>",0.5925,"",0,"",NA,"","images/map15_YlOrBr_scaleRev_orientMir_090.png","disgust",1,15,15,"YlOrBr","orientMir","scaleRev","090",NA,NA
"","","","","","html-slider-response",149,622684,"0.0-145.0","u0jza37d61",30,NA,"<div style=""width:500px;"">
                            <p style=""font-size:50px; font-weight:bold;""
                            >disgust</p>
                            <div style=""width:240px; margin: auto;"">
                                <img src=""images/map15_Reds_scaleRev_orientDef_270.png"" style= ""width:200px""alt=""img"">
                            </div>
                        </div>",0.66,"",0,"",NA,"","images/map15_Reds_scaleRev_orientDef_270.png","disgust",1,15,15,"Reds","orientDef","scaleRev","270",NA,NA
"","","","","","html-slider-response",150,624149,"0.0-146.0","u0jza37d61",30,NA,"<div style=""width:500px;"">
                            <p style=""font-size:50px; font-weight:bold;""
                            >disgust</p>
                            <div style=""width:240px; margin: auto;"">
                                <img src=""images/map02_RdBu_scaleDef_orientMir_180.png"" style= ""width:200px""alt=""img"">
                            </div>
                        </div>",0.255,"",0,"",NA,"","images/map02_RdBu_scaleDef_orientMir_180.png","disgust",1,2,2,"RdBu","orientMir","scaleDef","180",NA,NA
"","","","","","html-slider-response",151,626149,"0.0-147.0","u0jza37d61",30,NA,"<div style=""width:500px;"">
                            <p style=""font-size:50px; font-weight:bold;""
                            >disgust</p>
                            <div style=""width:240px; margin: auto;"">
                                <img src=""images/map02_PuOr_scaleRev_orientDef_270.png"" style= ""width:200px""alt=""img"">
                            </div>
                        </div>",0.805,"",0,"",NA,"","images/map02_PuOr_scaleRev_orientDef_270.png","disgust",1,2,2,"PuOr","orientDef","scaleRev","270",NA,NA
"","","","","","html-slider-response",152,627849,"0.0-148.0","u0jza37d61",30,NA,"<div style=""width:500px;"">
                            <p style=""font-size:50px; font-weight:bold;""
                            >disgust</p>
                            <div style=""width:240px; margin: auto;"">
                                <img src=""images/map02_RdBu_scaleRev_orientMir_270.png"" style= ""width:200px""alt=""img"">
                            </div>
                        </div>",0.2225,"",0,"",NA,"","images/map02_RdBu_scaleRev_orientMir_270.png","disgust",1,2,2,"RdBu","orientMir","scaleRev","270",NA,NA
"","","","","","html-slider-response",153,629517,"0.0-149.0","u0jza37d61",30,NA,"<div style=""width:500px;"">
                            <p style=""font-size:50px; font-weight:bold;""
                            >disgust</p>
                            <div style=""width:240px; margin: auto;"">
                                <img src=""images/map05_Spectral_scaleDef_orientMir_000.png"" style= ""width:200px""alt=""img"">
                            </div>
                        </div>",0.7075,"",0,"",NA,"","images/map05_Spectral_scaleDef_orientMir_000.png","disgust",1,5,5,"Spectral","orientMir","scaleDef","000",NA,NA
"","","","","","html-slider-response",154,631132,"0.0-150.0","u0jza37d61",30,NA,"<div style=""width:500px;"">
                            <p style=""font-size:50px; font-weight:bold;""
                            >disgust</p>
                            <div style=""width:240px; margin: auto;"">
                                <img src=""images/map15_Oranges_scaleRev_orientDef_090.png"" style= ""width:200px""alt=""img"">
                            </div>
                        </div>",0.685,"",0,"",NA,"","images/map15_Oranges_scaleRev_orientDef_090.png","disgust",1,15,15,"Oranges","orientDef","scaleRev","090",NA,NA
"","","","","","html-slider-response",155,632782,"0.0-151.0","u0jza37d61",30,NA,"<div style=""width:500px;"">
                            <p style=""font-size:50px; font-weight:bold;""
                            >disgust</p>
                            <div style=""width:240px; margin: auto;"">
                                <img src=""images/map27_PRGn_scaleDef_orientMir_180.png"" style= ""width:200px""alt=""img"">
                            </div>
                        </div>",0.8375,"",0,"",NA,"","images/map27_PRGn_scaleDef_orientMir_180.png","disgust",1,27,27,"PRGn","orientMir","scaleDef","180",NA,NA
"","","","","","html-slider-response",156,634299,"0.0-152.0","u0jza37d61",30,NA,"<div style=""width:500px;"">
                            <p style=""font-size:50px; font-weight:bold;""
                            >disgust</p>
                            <div style=""width:240px; margin: auto;"">
                                <img src=""images/map02_RdGy_scaleRev_orientMir_090.png"" style= ""width:200px""alt=""img"">
                            </div>
                        </div>",0.755,"",0,"",NA,"","images/map02_RdGy_scaleRev_orientMir_090.png","disgust",1,2,2,"RdGy","orientMir","scaleRev","090",NA,NA
"","","","","","html-slider-response",157,636033,"0.0-153.0","u0jza37d61",30,NA,"<div style=""width:500px;"">
                            <p style=""font-size:50px; font-weight:bold;""
                            >disgust</p>
                            <div style=""width:240px; margin: auto;"">
                                <img src=""images/map27_YlGn_scaleRev_orientDef_270.png"" style= ""width:200px""alt=""img"">
                            </div>
                        </div>",0.865,"",0,"",NA,"","images/map27_YlGn_scaleRev_orientDef_270.png","disgust",1,27,27,"YlGn","orientDef","scaleRev","270",NA,NA
"","","","","","html-slider-response",158,637698,"0.0-154.0","u0jza37d61",30,NA,"<div style=""width:500px;"">
                            <p style=""font-size:50px; font-weight:bold;""
                            >disgust</p>
                            <div style=""width:240px; margin: auto;"">
                                <img src=""images/map26_PuBu_scaleDef_orientDef_180.png"" style= ""width:200px""alt=""img"">
                            </div>
                        </div>",0.2175,"",0,"",NA,"","images/map26_PuBu_scaleDef_orientDef_180.png","disgust",1,26,26,"PuBu","orientDef","scaleDef","180",NA,NA
"","","","","","html-slider-response",159,639366,"0.0-155.0","u0jza37d61",30,NA,"<div style=""width:500px;"">
                            <p style=""font-size:50px; font-weight:bold;""
                            >disgust</p>
                            <div style=""width:240px; margin: auto;"">
                                <img src=""images/map15_YlOrRd_scaleDef_orientMir_180.png"" style= ""width:200px""alt=""img"">
                            </div>
                        </div>",0.6825,"",0,"",NA,"","images/map15_YlOrRd_scaleDef_orientMir_180.png","disgust",1,15,15,"YlOrRd","orientMir","scaleDef","180",NA,NA
"","","","","","html-slider-response",160,640983,"0.0-156.0","u0jza37d61",30,NA,"<div style=""width:500px;"">
                            <p style=""font-size:50px; font-weight:bold;""
                            >disgust</p>
                            <div style=""width:240px; margin: auto;"">
                                <img src=""images/map26_PuBu_scaleRev_orientDef_270.png"" style= ""width:200px""alt=""img"">
                            </div>
                        </div>",0.19,"",0,"",NA,"","images/map26_PuBu_scaleRev_orientDef_270.png","disgust",1,26,26,"PuBu","orientDef","scaleRev","270",NA,NA
"","","","","","html-slider-response",161,642549,"0.0-157.0","u0jza37d61",30,NA,"<div style=""width:500px;"">
                            <p style=""font-size:50px; font-weight:bold;""
                            >disgust</p>
                            <div style=""width:240px; margin: auto;"">
                                <img src=""images/map27_BuGn_scaleRev_orientDef_090.png"" style= ""width:200px""alt=""img"">
                            </div>
                        </div>",0.7875,"",0,"",NA,"","images/map27_BuGn_scaleRev_orientDef_090.png","disgust",1,27,27,"BuGn","orientDef","scaleRev","090",NA,NA
"","","","","","html-slider-response",162,644116,"0.0-158.0","u0jza37d61",30,NA,"<div style=""width:500px;"">
                            <p style=""font-size:50px; font-weight:bold;""
                            >disgust</p>
                            <div style=""width:240px; margin: auto;"">
                                <img src=""images/map07_seismic_scaleRev_orientDef_270.png"" style= ""width:200px""alt=""img"">
                            </div>
                        </div>",0.255,"",0,"",NA,"","images/map07_seismic_scaleRev_orientDef_270.png","disgust",1,7,7,"seismic","orientDef","scaleRev","270",NA,NA
