"success","timeout","failed_images","failed_audio","failed_video","trial_type","trial_index","time_elapsed","internal_node_id","subject_id","condition_num","rt","stimulus","response","question_order","slider_start","practiceTrial","practiceTrialNum","correct","image_path","concept","repetition","map_id","map_num","scale_name","orientation_code","mapping_code","rotation_code","ishihara_plate","correct_response"
"true","false","[]","[]","[]","preload",0,927,"0.0-0.0","j6mkwue87m",1,NA,"",NA,"",NA,"",NA,"","","",NA,NA,NA,"","","","",NA,NA
"","","","","","html-button-response",1,7942,"0.0-1.0","j6mkwue87m",1,7014,"Welcome to our experiment!<p>At the bottom of this screen, you will see a button that says ""Begin Experiment"".<br>Please only click that button when you are ready to complete the 30 minute experiment in one sitting.</p><p> Once you click that button, it will not be possible to restart the experiment.",0.5,"",NA,"",NA,"","","",NA,NA,NA,"","","","",NA,NA
"true","","","","","fullscreen",2,11261,"0.0-2.0","j6mkwue87m",1,2317,"",NA,"",NA,"",NA,"","","",NA,NA,NA,"","","","",NA,NA
"","","","","","survey-multi-select",3,29545,"0.0-3.0","j6mkwue87m",1,18280,"",NA,"[0]",NA,"",NA,"","","",NA,NA,NA,"","","","",NA,NA
"","","","","","html-button-response",4,31009,"0.0-4.0","j6mkwue87m",1,1463,"Welcome! <p> This experiment involves two parts: demographic information, followed by the experimental task.<p> It will take about 30 minutes to complete both parts.",0.5,"",NA,"",NA,"","","",NA,NA,NA,"","","","",NA,NA
"","","","","","survey-text",5,40442,"0.0-5.0","j6mkwue87m",1,9428,"",NA,"",NA,"",NA,"","","",NA,NA,NA,"","","","",NA,NA
"","","","","","html-slider-response",6,52392,"0.0-6.0","j6mkwue87m",1,11949,"<div style='text-align:left; font-size:20px; line-height:25px; width: 1000px;'>
                                During this experiment you will be asked to rate how much you associate maps with                    different concepts.<br> Below, you can see some examples of the maps you will be asked to rate. Above the maps
                    is the list of concepts.<br>You will be asked                    to rate how much you associate each map with each concept on a scale from 'not at all' to 'very much' like the
                    one below. <br><br>
                    Now, please look at the list of concepts and maps. For each concept, think about the map you associate 'very
                    much' with the concept.<br>                     When you see that map during the experiment, please rate it near the 'very much' endpoint of the
                    scale.<br>Now, please think about which map you associate 'not at all'                     with each concept. When you see that map during the experiment, please rate it near the 'not at all' endpoint
                    of the scale.<br>
                    Please use the full range of the scale. That is, if a map is somewhat associated with the concept, you would
                    click partway between the middle point and right side of the scale.                    You will be asked to rate each map for a given concept before moving on to the next concept.<br>Press the
                    'Continue' button for instructions on how to use the slider.                    <br>
                </div>

                <div style=""width: 500px; margin: 0 auto;"">
                    <!-- Centered text paragraphs -->
                    <div style=""text-align: center; width: 500px;"">
                        <p style=""font-size:25px; line-height:15px;"">
                            sad&nbsp;&nbsp;&nbsp;&nbsp;
                            happy&nbsp;&nbsp;&nbsp;&nbsp;
                            disgust&nbsp;&nbsp;&nbsp;&nbsp;
                            fearful&nbsp;&nbsp;&nbsp;&nbsp;
                            angry
                        </p>
                        <!-- <p style=""font-size:20px; line-height:15px;"">happy</p>
                        <p style=""font-size:20px;line-height:15px;"">disgust</p>
                        <p style=""font-size:20px;line-height:15px;"">fearful</p>
                        <p style=""font-size:20px;line-height:15px;"">angry</p> -->
                    </div>
            

                    <!-- Grid section -->
                   <div style=""display: flex; justify-content: center; padding-top: 15px;"">
                    <div style=""display: grid; grid-template-columns: repeat(10, 55px); grid-gap: 5px; width: auto;"">
                        <img src=""images/map23_RdGy_scaleRev_orientDef_000.png"" alt=""map"" style=""width: 100%;""><img src=""images/map10_OrRd_scaleRev_orientMir_000.png"" alt=""map"" style=""width: 100%;""><img src=""images/map26_coolwarm_scaleDef_orientDef_090.png"" alt=""map"" style=""width: 100%;""><img src=""images/map10_YlOrRd_scaleRev_orientDef_180.png"" alt=""map"" style=""width: 100%;""><img src=""images/map10_PuRd_scaleDef_orientMir_090.png"" alt=""map"" style=""width: 100%;""><img src=""images/map05_magma_scaleRev_orientDef_000.png"" alt=""map"" style=""width: 100%;""><img src=""images/map13_BuGn_scaleRev_orientMir_000.png"" alt=""map"" style=""width: 100%;""><img src=""images/map12_RdPu_scaleRev_orientDef_000.png"" alt=""map"" style=""width: 100%;""><img src=""images/map05_Purples_scaleDef_orientMir_090.png"" alt=""map"" style=""width: 100%;""><img src=""images/map15_PuOr_scaleRev_orientMir_180.png"" alt=""map"" style=""width: 100%;""><img src=""images/map15_BrBG_scaleRev_orientMir_000.png"" alt=""map"" style=""width: 100%;""><img src=""images/map13_PiYG_scaleDef_orientMir_270.png"" alt=""map"" style=""width: 100%;""><img src=""images/map26_bwr_scaleDef_orientDef_270.png"" alt=""map"" style=""width: 100%;""><img src=""images/map27_vanimo_scaleRev_orientMir_000.png"" alt=""map"" style=""width: 100%;""><img src=""images/map02_viridis_scaleRev_orientDef_180.png"" alt=""map"" style=""width: 100%;""><img src=""images/map23_RdYlGn_scaleRev_orientMir_180.png"" alt=""map"" style=""width: 100%;""><img src=""images/map05_cividis_scaleDef_orientDef_090.png"" alt=""map"" style=""width: 100%;""><img src=""images/map23_RdYlBu_scaleDef_orientDef_270.png"" alt=""map"" style=""width: 100%;""><img src=""images/map07_Oranges_scaleRev_orientMir_000.png"" alt=""map"" style=""width: 100%;""><img src=""images/map10_YlOrBr_scaleRev_orientDef_000.png"" alt=""map"" style=""width: 100%;""><img src=""images/map02_turbo_scaleRev_orientDef_000.png"" alt=""map"" style=""width: 100%;""><img src=""images/map02_inferno_scaleDef_orientMir_090.png"" alt=""map"" style=""width: 100%;""><img src=""images/map26_berlin_scaleDef_orientMir_270.png"" alt=""map"" style=""width: 100%;""><img src=""images/map15_PRGn_scaleRev_orientDef_180.png"" alt=""map"" style=""width: 100%;""><img src=""images/map23_Spectral_scaleDef_orientMir_270.png"" alt=""map"" style=""width: 100%;""><img src=""images/map12_GnBu_scaleRev_orientMir_000.png"" alt=""map"" style=""width: 100%;""><img src=""images/map12_BuPu_scaleDef_orientDef_090.png"" alt=""map"" style=""width: 100%;""><img src=""images/map26_seismic_scaleRev_orientMir_180.png"" alt=""map"" style=""width: 100%;""><img src=""images/map13_YlGn_scaleDef_orientMir_090.png"" alt=""map"" style=""width: 100%;""><img src=""images/map27_gist_earth_scaleDef_orientMir_090.png"" alt=""map"" style=""width: 100%;""><img src=""images/map13_YlGnBu_scaleRev_orientDef_000.png"" alt=""map"" style=""width: 100%;""><img src=""images/map07_Reds_scaleDef_orientMir_090.png"" alt=""map"" style=""width: 100%;""><img src=""images/map27_managua_scaleDef_orientDef_090.png"" alt=""map"" style=""width: 100%;""><img src=""images/map23_RdBu_scaleDef_orientDef_090.png"" alt=""map"" style=""width: 100%;""><img src=""images/map12_PuBu_scaleRev_orientMir_180.png"" alt=""map"" style=""width: 100%;""><img src=""images/map05_Blues_scaleDef_orientMir_270.png"" alt=""map"" style=""width: 100%;""><img src=""images/map07_Greens_scaleDef_orientDef_090.png"" alt=""map"" style=""width: 100%;""><img src=""images/map05_Greys_scaleDef_orientDef_270.png"" alt=""map"" style=""width: 100%;""><img src=""images/map13_PuBuGn_scaleRev_orientDef_180.png"" alt=""map"" style=""width: 100%;""><img src=""images/map02_plasma_scaleRev_orientMir_000.png"" alt=""map"" style=""width: 100%;"">
                    </div>
                </div>

                    <!-- Clear floats -->
                    <div style=""clear: both;""></div>
                </div>
                            ",NA,"",0,"true",NA,"","","",NA,NA,NA,"","","","",NA,NA
"","","","","","html-button-response",7,53758,"0.0-7.0","j6mkwue87m",1,1365,"<div style=""width:800px;""><p style=""text-align:left"">To move the slider, click and drag your cursor to the location of the scale where you would like to make your rating and then let go. When you let go of the slider, your response will be recorded and the next trial will begin. <br>
                    We are interested in your initial impressions of each map for the given concept, so please go with your first intuition. <br>
                    Before you begin the experiment, there will be four training trials for you to practice using the scale. <br>
                     When you are ready to start the training trials, please click ""Continue"".</p><br></div>",0.5,"",NA,"",NA,"","","",NA,NA,NA,"","","","",NA,NA
"","","","","","html-slider-response",8,58585,"0.0-8.0-0.0","j6mkwue87m",1,NA,"<div style=""width:500px;"">
                                    <p style=""font-size:25px;"">Please move the slider all the way to the <br> right endpoint of the scale</p>

                                    </div>
                                </div>",1,"",0,"true",0,"true","","",NA,NA,NA,"","","","",NA,NA
"","","","","","html-button-response",9,60408,"0.0-8.0-1.0","j6mkwue87m",1,1320,"<p align='center'><b>Good job!</b> Click on 'Continue' to proceed.</p>",0.5,"",NA,"",NA,"","","",NA,NA,NA,"","","","",NA,NA
"","","","","","html-slider-response",10,61952,"0.0-9.0-0.0","j6mkwue87m",1,NA,"<div style=""width:500px;"">
                                    <p style=""font-size:25px;"">Please move the slider all the way to the <br> left endpoint of the scale</p>

                                    </div>
                                </div>",0,"",0,"true",1,"true","","",NA,NA,NA,"","","","",NA,NA
"","","","","","html-button-response",11,63225,"0.0-9.0-1.0","j6mkwue87m",1,770,"<p align='center'><b>Good job!</b> Click on 'Continue' to proceed.</p>",0.5,"",NA,"",NA,"","","",NA,NA,NA,"","","","",NA,NA
"","","","","","html-slider-response",12,67853,"0.0-10.0-0.0","j6mkwue87m",1,NA,"<div style=""width:500px;"">
                                    <p style=""font-size:25px;"">Please move the slider halfway between the center and right endpoint of the scale</p>

                                    </div>
                                </div>",0.7625,"",0,"true",2,"true","","",NA,NA,NA,"","","","",NA,NA
"","","","","","html-button-response",13,69191,"0.0-10.0-1.0","j6mkwue87m",1,836,"<p align='center'><b>Good job!</b> Click on 'Continue' to proceed.</p>",0.5,"",NA,"",NA,"","","",NA,NA,NA,"","","","",NA,NA
"","","","","","html-slider-response",14,71169,"0.0-11.0-0.0","j6mkwue87m",1,NA,"<div style=""width:500px;"">
                                    <p style=""font-size:25px;"">Please move the slider halfway between the center and left endpoint of the scale</p>

                                    </div>
                                </div>",0.225,"",0,"true",3,"true","","",NA,NA,NA,"","","","",NA,NA
"","","","","","html-button-response",15,72324,"0.0-11.0-1.0","j6mkwue87m",1,653,"<p align='center'><b>Good job!</b> Click on 'Continue' to proceed.</p>",0.5,"",NA,"",NA,"","","",NA,NA,NA,"","","","",NA,NA
"","","","","","html-button-response",16,74074,"0.0-12.0","j6mkwue87m",1,1749,"<p>Great job! You've completed the practice trials. Now you will begin the main task.</p>",0.5,"",NA,"",NA,"","","",NA,NA,NA,"","","","",NA,NA
"","","","","","html-button-response",17,79957,"0.0-13.0","j6mkwue87m",1,5882,"<p>In this block of trials, you will be asked to rate how much you associate each map with:</p > <p style = 'font-size:150%; font-weight: bold'>sad</p><br></br>",0.5,"",NA,"",NA,"","","",NA,NA,NA,"","","","",NA,NA
"","","","","","html-slider-response",18,85054,"0.0-14.0","j6mkwue87m",1,NA,"<div style=""width:500px;"">
                            <p style=""font-size:50px; font-weight:bold;""
                            >sad</p>
                            <div style=""width:240px; margin: auto;"">
                                <img src=""images/map27_turbo_scaleDef_orientMir_270.png"" style= ""width:200px""alt=""img"">
                            </div>
                        </div>",0.6775,"",0,"",NA,"","images/map27_turbo_scaleDef_orientMir_270.png","sad",1,27,27,"turbo","orientMir","scaleDef","270",NA,NA
"","","","","","html-slider-response",19,88318,"0.0-15.0","j6mkwue87m",1,NA,"<div style=""width:500px;"">
                            <p style=""font-size:50px; font-weight:bold;""
                            >sad</p>
                            <div style=""width:240px; margin: auto;"">
                                <img src=""images/map27_managua_scaleRev_orientDef_180.png"" style= ""width:200px""alt=""img"">
                            </div>
                        </div>",0.665,"",0,"",NA,"","images/map27_managua_scaleRev_orientDef_180.png","sad",1,27,27,"managua","orientDef","scaleRev","180",NA,NA
"","","","","","html-slider-response",20,90818,"0.0-16.0","j6mkwue87m",1,NA,"<div style=""width:500px;"">
                            <p style=""font-size:50px; font-weight:bold;""
                            >sad</p>
                            <div style=""width:240px; margin: auto;"">
                                <img src=""images/map23_RdBu_scaleDef_orientDef_090.png"" style= ""width:200px""alt=""img"">
                            </div>
                        </div>",0.6625,"",0,"",NA,"","images/map23_RdBu_scaleDef_orientDef_090.png","sad",1,23,23,"RdBu","orientDef","scaleDef","090",NA,NA
"","","","","","html-slider-response",21,94051,"0.0-17.0","j6mkwue87m",1,NA,"<div style=""width:500px;"">
                            <p style=""font-size:50px; font-weight:bold;""
                            >sad</p>
                            <div style=""width:240px; margin: auto;"">
                                <img src=""images/map15_PuOr_scaleRev_orientMir_180.png"" style= ""width:200px""alt=""img"">
                            </div>
                        </div>",0.235,"",0,"",NA,"","images/map15_PuOr_scaleRev_orientMir_180.png","sad",1,15,15,"PuOr","orientMir","scaleRev","180",NA,NA
"","","","","","html-slider-response",22,95685,"0.0-18.0","j6mkwue87m",1,NA,"<div style=""width:500px;"">
                            <p style=""font-size:50px; font-weight:bold;""
                            >sad</p>
                            <div style=""width:240px; margin: auto;"">
                                <img src=""images/map10_PuRd_scaleRev_orientMir_180.png"" style= ""width:200px""alt=""img"">
                            </div>
                        </div>",0,"",0,"",NA,"","images/map10_PuRd_scaleRev_orientMir_180.png","sad",1,10,10,"PuRd","orientMir","scaleRev","180",NA,NA
"","","","","","html-slider-response",23,99684,"0.0-19.0","j6mkwue87m",1,NA,"<div style=""width:500px;"">
                            <p style=""font-size:50px; font-weight:bold;""
                            >sad</p>
                            <div style=""width:240px; margin: auto;"">
                                <img src=""images/map07_Reds_scaleRev_orientMir_180.png"" style= ""width:200px""alt=""img"">
                            </div>
                        </div>",0.335,"",0,"",NA,"","images/map07_Reds_scaleRev_orientMir_180.png","sad",1,7,7,"Reds","orientMir","scaleRev","180",NA,NA
"","","","","","html-slider-response",24,101884,"0.0-20.0","j6mkwue87m",1,NA,"<div style=""width:500px;"">
                            <p style=""font-size:50px; font-weight:bold;""
                            >sad</p>
                            <div style=""width:240px; margin: auto;"">
                                <img src=""images/map12_BuPu_scaleRev_orientDef_180.png"" style= ""width:200px""alt=""img"">
                            </div>
                        </div>",0.2525,"",0,"",NA,"","images/map12_BuPu_scaleRev_orientDef_180.png","sad",1,12,12,"BuPu","orientDef","scaleRev","180",NA,NA
"","","","","","html-slider-response",25,103518,"0.0-21.0","j6mkwue87m",1,NA,"<div style=""width:500px;"">
                            <p style=""font-size:50px; font-weight:bold;""
                            >sad</p>
                            <div style=""width:240px; margin: auto;"">
                                <img src=""images/map07_Blues_scaleRev_orientDef_000.png"" style= ""width:200px""alt=""img"">
                            </div>
                        </div>",1,"",0,"",NA,"","images/map07_Blues_scaleRev_orientDef_000.png","sad",1,7,7,"Blues","orientDef","scaleRev","000",NA,NA
"","","","","","html-slider-response",26,105418,"0.0-22.0","j6mkwue87m",1,NA,"<div style=""width:500px;"">
                            <p style=""font-size:50px; font-weight:bold;""
                            >sad</p>
                            <div style=""width:240px; margin: auto;"">
                                <img src=""images/map05_Blues_scaleDef_orientMir_270.png"" style= ""width:200px""alt=""img"">
                            </div>
                        </div>",1,"",0,"",NA,"","images/map05_Blues_scaleDef_orientMir_270.png","sad",1,5,5,"Blues","orientMir","scaleDef","270",NA,NA
"","","","","","html-slider-response",27,108117,"0.0-23.0","j6mkwue87m",1,NA,"<div style=""width:500px;"">
                            <p style=""font-size:50px; font-weight:bold;""
                            >sad</p>
                            <div style=""width:240px; margin: auto;"">
                                <img src=""images/map23_RdYlGn_scaleRev_orientMir_180.png"" style= ""width:200px""alt=""img"">
                            </div>
                        </div>",0.4575,"",0,"",NA,"","images/map23_RdYlGn_scaleRev_orientMir_180.png","sad",1,23,23,"RdYlGn","orientMir","scaleRev","180",NA,NA
"","","","","","html-slider-response",28,109951,"0.0-24.0","j6mkwue87m",1,NA,"<div style=""width:500px;"">
                            <p style=""font-size:50px; font-weight:bold;""
                            >sad</p>
                            <div style=""width:240px; margin: auto;"">
                                <img src=""images/map07_YlOrBr_scaleDef_orientMir_270.png"" style= ""width:200px""alt=""img"">
                            </div>
                        </div>",0.4825,"",0,"",NA,"","images/map07_YlOrBr_scaleDef_orientMir_270.png","sad",1,7,7,"YlOrBr","orientMir","scaleDef","270",NA,NA
"","","","","","html-slider-response",29,112250,"0.0-25.0","j6mkwue87m",1,NA,"<div style=""width:500px;"">
                            <p style=""font-size:50px; font-weight:bold;""
                            >sad</p>
                            <div style=""width:240px; margin: auto;"">
                                <img src=""images/map05_Purples_scaleDef_orientMir_090.png"" style= ""width:200px""alt=""img"">
                            </div>
                        </div>",0.36,"",0,"",NA,"","images/map05_Purples_scaleDef_orientMir_090.png","sad",1,5,5,"Purples","orientMir","scaleDef","090",NA,NA
"","","","","","html-slider-response",30,114235,"0.0-26.0","j6mkwue87m",1,NA,"<div style=""width:500px;"">
                            <p style=""font-size:50px; font-weight:bold;""
                            >sad</p>
                            <div style=""width:240px; margin: auto;"">
                                <img src=""images/map07_Oranges_scaleDef_orientDef_270.png"" style= ""width:200px""alt=""img"">
                            </div>
                        </div>",0.415,"",0,"",NA,"","images/map07_Oranges_scaleDef_orientDef_270.png","sad",1,7,7,"Oranges","orientDef","scaleDef","270",NA,NA
"","","","","","html-slider-response",31,116500,"0.0-27.0","j6mkwue87m",1,NA,"<div style=""width:500px;"">
                            <p style=""font-size:50px; font-weight:bold;""
                            >sad</p>
                            <div style=""width:240px; margin: auto;"">
                                <img src=""images/map05_Purples_scaleRev_orientMir_180.png"" style= ""width:200px""alt=""img"">
                            </div>
                        </div>",0.415,"",0,"",NA,"","images/map05_Purples_scaleRev_orientMir_180.png","sad",1,5,5,"Purples","orientMir","scaleRev","180",NA,NA
"","","","","","html-slider-response",32,118417,"0.0-28.0","j6mkwue87m",1,NA,"<div style=""width:500px;"">
                            <p style=""font-size:50px; font-weight:bold;""
                            >sad</p>
                            <div style=""width:240px; margin: auto;"">
                                <img src=""images/map10_OrRd_scaleDef_orientDef_270.png"" style= ""width:200px""alt=""img"">
                            </div>
                        </div>",0.43,"",0,"",NA,"","images/map10_OrRd_scaleDef_orientDef_270.png","sad",1,10,10,"OrRd","orientDef","scaleDef","270",NA,NA
"","","","","","html-slider-response",33,120334,"0.0-29.0","j6mkwue87m",1,NA,"<div style=""width:500px;"">
                            <p style=""font-size:50px; font-weight:bold;""
                            >sad</p>
                            <div style=""width:240px; margin: auto;"">
                                <img src=""images/map07_Oranges_scaleRev_orientMir_000.png"" style= ""width:200px""alt=""img"">
                            </div>
                        </div>",0.45,"",0,"",NA,"","images/map07_Oranges_scaleRev_orientMir_000.png","sad",1,7,7,"Oranges","orientMir","scaleRev","000",NA,NA
"","","","","","html-slider-response",34,122117,"0.0-30.0","j6mkwue87m",1,NA,"<div style=""width:500px;"">
                            <p style=""font-size:50px; font-weight:bold;""
                            >sad</p>
                            <div style=""width:240px; margin: auto;"">
                                <img src=""images/map13_YlGn_scaleRev_orientMir_180.png"" style= ""width:200px""alt=""img"">
                            </div>
                        </div>",0.4375,"",0,"",NA,"","images/map13_YlGn_scaleRev_orientMir_180.png","sad",1,13,13,"YlGn","orientMir","scaleRev","180",NA,NA
"","","","","","html-slider-response",35,123601,"0.0-31.0","j6mkwue87m",1,NA,"<div style=""width:500px;"">
                            <p style=""font-size:50px; font-weight:bold;""
                            >sad</p>
                            <div style=""width:240px; margin: auto;"">
                                <img src=""images/map02_viridis_scaleRev_orientDef_180.png"" style= ""width:200px""alt=""img"">
                            </div>
                        </div>",1,"",0,"",NA,"","images/map02_viridis_scaleRev_orientDef_180.png","sad",1,2,2,"viridis","orientDef","scaleRev","180",NA,NA
"","","","","","html-slider-response",36,125701,"0.0-32.0","j6mkwue87m",1,NA,"<div style=""width:500px;"">
                            <p style=""font-size:50px; font-weight:bold;""
                            >sad</p>
                            <div style=""width:240px; margin: auto;"">
                                <img src=""images/map26_coolwarm_scaleRev_orientDef_180.png"" style= ""width:200px""alt=""img"">
                            </div>
                        </div>",0.585,"",0,"",NA,"","images/map26_coolwarm_scaleRev_orientDef_180.png","sad",1,26,26,"coolwarm","orientDef","scaleRev","180",NA,NA
"","","","","","html-slider-response",37,128036,"0.0-33.0","j6mkwue87m",1,NA,"<div style=""width:500px;"">
                            <p style=""font-size:50px; font-weight:bold;""
                            >sad</p>
                            <div style=""width:240px; margin: auto;"">
                                <img src=""images/map15_PuOr_scaleDef_orientMir_090.png"" style= ""width:200px""alt=""img"">
                            </div>
                        </div>",0.4025,"",0,"",NA,"","images/map15_PuOr_scaleDef_orientMir_090.png","sad",1,15,15,"PuOr","orientMir","scaleDef","090",NA,NA
"","","","","","html-slider-response",38,129983,"0.0-34.0","j6mkwue87m",1,NA,"<div style=""width:500px;"">
                            <p style=""font-size:50px; font-weight:bold;""
                            >sad</p>
                            <div style=""width:240px; margin: auto;"">
                                <img src=""images/map02_turbo_scaleRev_orientDef_000.png"" style= ""width:200px""alt=""img"">
                            </div>
                        </div>",0.615,"",0,"",NA,"","images/map02_turbo_scaleRev_orientDef_000.png","sad",1,2,2,"turbo","orientDef","scaleRev","000",NA,NA
"","","","","","html-slider-response",39,132468,"0.0-35.0","j6mkwue87m",1,NA,"<div style=""width:500px;"">
                            <p style=""font-size:50px; font-weight:bold;""
                            >sad</p>
                            <div style=""width:240px; margin: auto;"">
                                <img src=""images/map27_gist_earth_scaleDef_orientMir_090.png"" style= ""width:200px""alt=""img"">
                            </div>
                        </div>",0.3875,"",0,"",NA,"","images/map27_gist_earth_scaleDef_orientMir_090.png","sad",1,27,27,"gist","scaleDef","earth","orientMir",NA,NA
"","","","","","html-slider-response",40,134484,"0.0-36.0","j6mkwue87m",1,NA,"<div style=""width:500px;"">
                            <p style=""font-size:50px; font-weight:bold;""
                            >sad</p>
                            <div style=""width:240px; margin: auto;"">
                                <img src=""images/map05_Greys_scaleDef_orientDef_270.png"" style= ""width:200px""alt=""img"">
                            </div>
                        </div>",1,"",0,"",NA,"","images/map05_Greys_scaleDef_orientDef_270.png","sad",1,5,5,"Greys","orientDef","scaleDef","270",NA,NA
"","","","","","html-slider-response",41,136818,"0.0-37.0","j6mkwue87m",1,NA,"<div style=""width:500px;"">
                            <p style=""font-size:50px; font-weight:bold;""
                            >sad</p>
                            <div style=""width:240px; margin: auto;"">
                                <img src=""images/map12_BuPu_scaleDef_orientDef_090.png"" style= ""width:200px""alt=""img"">
                            </div>
                        </div>",0.4375,"",0,"",NA,"","images/map12_BuPu_scaleDef_orientDef_090.png","sad",1,12,12,"BuPu","orientDef","scaleDef","090",NA,NA
"","","","","","html-slider-response",42,138599,"0.0-38.0","j6mkwue87m",1,NA,"<div style=""width:500px;"">
                            <p style=""font-size:50px; font-weight:bold;""
                            >sad</p>
                            <div style=""width:240px; margin: auto;"">
                                <img src=""images/map12_YlGnBu_scaleDef_orientMir_270.png"" style= ""width:200px""alt=""img"">
                            </div>
                        </div>",1,"",0,"",NA,"","images/map12_YlGnBu_scaleDef_orientMir_270.png","sad",1,12,12,"YlGnBu","orientMir","scaleDef","270",NA,NA
"","","","","","html-slider-response",43,140432,"0.0-39.0","j6mkwue87m",1,NA,"<div style=""width:500px;"">
                            <p style=""font-size:50px; font-weight:bold;""
                            >sad</p>
                            <div style=""width:240px; margin: auto;"">
                                <img src=""images/map13_YlGnBu_scaleRev_orientDef_000.png"" style= ""width:200px""alt=""img"">
                            </div>
                        </div>",1,"",0,"",NA,"","images/map13_YlGnBu_scaleRev_orientDef_000.png","sad",1,13,13,"YlGnBu","orientDef","scaleRev","000",NA,NA
"","","","","","html-slider-response",44,142601,"0.0-40.0","j6mkwue87m",1,NA,"<div style=""width:500px;"">
                            <p style=""font-size:50px; font-weight:bold;""
                            >sad</p>
                            <div style=""width:240px; margin: auto;"">
                                <img src=""images/map23_Spectral_scaleDef_orientMir_270.png"" style= ""width:200px""alt=""img"">
                            </div>
                        </div>",0.5575,"",0,"",NA,"","images/map23_Spectral_scaleDef_orientMir_270.png","sad",1,23,23,"Spectral","orientMir","scaleDef","270",NA,NA
"","","","","","html-slider-response",45,144967,"0.0-41.0","j6mkwue87m",1,NA,"<div style=""width:500px;"">
                            <p style=""font-size:50px; font-weight:bold;""
                            >sad</p>
                            <div style=""width:240px; margin: auto;"">
                                <img src=""images/map15_PiYG_scaleRev_orientDef_000.png"" style= ""width:200px""alt=""img"">
                            </div>
                        </div>",0.3925,"",0,"",NA,"","images/map15_PiYG_scaleRev_orientDef_000.png","sad",1,15,15,"PiYG","orientDef","scaleRev","000",NA,NA
"","","","","","html-slider-response",46,146901,"0.0-42.0","j6mkwue87m",1,NA,"<div style=""width:500px;"">
                            <p style=""font-size:50px; font-weight:bold;""
                            >sad</p>
                            <div style=""width:240px; margin: auto;"">
                                <img src=""images/map26_bwr_scaleDef_orientDef_270.png"" style= ""width:200px""alt=""img"">
                            </div>
                        </div>",0.59,"",0,"",NA,"","images/map26_bwr_scaleDef_orientDef_270.png","sad",1,26,26,"bwr","orientDef","scaleDef","270",NA,NA
"","","","","","html-slider-response",47,148668,"0.0-43.0","j6mkwue87m",1,NA,"<div style=""width:500px;"">
                            <p style=""font-size:50px; font-weight:bold;""
                            >sad</p>
                            <div style=""width:240px; margin: auto;"">
                                <img src=""images/map02_plasma_scaleDef_orientDef_270.png"" style= ""width:200px""alt=""img"">
                            </div>
                        </div>",0.3675,"",0,"",NA,"","images/map02_plasma_scaleDef_orientDef_270.png","sad",1,2,2,"plasma","orientDef","scaleDef","270",NA,NA
"","","","","","html-slider-response",48,150517,"0.0-44.0","j6mkwue87m",1,NA,"<div style=""width:500px;"">
                            <p style=""font-size:50px; font-weight:bold;""
                            >sad</p>
                            <div style=""width:240px; margin: auto;"">
                                <img src=""images/map02_inferno_scaleRev_orientMir_180.png"" style= ""width:200px""alt=""img"">
                            </div>
                        </div>",0.395,"",0,"",NA,"","images/map02_inferno_scaleRev_orientMir_180.png","sad",1,2,2,"inferno","orientMir","scaleRev","180",NA,NA
"","","","","","html-slider-response",49,152317,"0.0-45.0","j6mkwue87m",1,NA,"<div style=""width:500px;"">
                            <p style=""font-size:50px; font-weight:bold;""
                            >sad</p>
                            <div style=""width:240px; margin: auto;"">
                                <img src=""images/map10_YlOrRd_scaleRev_orientDef_180.png"" style= ""width:200px""alt=""img"">
                            </div>
                        </div>",0.405,"",0,"",NA,"","images/map10_YlOrRd_scaleRev_orientDef_180.png","sad",1,10,10,"YlOrRd","orientDef","scaleRev","180",NA,NA
"","","","","","html-slider-response",50,154183,"0.0-46.0","j6mkwue87m",1,NA,"<div style=""width:500px;"">
                            <p style=""font-size:50px; font-weight:bold;""
                            >sad</p>
                            <div style=""width:240px; margin: auto;"">
                                <img src=""images/map27_vanimo_scaleDef_orientDef_270.png"" style= ""width:200px""alt=""img"">
                            </div>
                        </div>",0.395,"",0,"",NA,"","images/map27_vanimo_scaleDef_orientDef_270.png","sad",1,27,27,"vanimo","orientDef","scaleDef","270",NA,NA
"","","","","","html-slider-response",51,155601,"0.0-47.0","j6mkwue87m",1,NA,"<div style=""width:500px;"">
                            <p style=""font-size:50px; font-weight:bold;""
                            >sad</p>
                            <div style=""width:240px; margin: auto;"">
                                <img src=""images/map12_PuBu_scaleRev_orientMir_180.png"" style= ""width:200px""alt=""img"">
                            </div>
                        </div>",1,"",0,"",NA,"","images/map12_PuBu_scaleRev_orientMir_180.png","sad",1,12,12,"PuBu","orientMir","scaleRev","180",NA,NA
"","","","","","html-slider-response",52,157265,"0.0-48.0","j6mkwue87m",1,NA,"<div style=""width:500px;"">
                            <p style=""font-size:50px; font-weight:bold;""
                            >sad</p>
                            <div style=""width:240px; margin: auto;"">
                                <img src=""images/map10_RdPu_scaleDef_orientMir_270.png"" style= ""width:200px""alt=""img"">
                            </div>
                        </div>",0,"",0,"",NA,"","images/map10_RdPu_scaleDef_orientMir_270.png","sad",1,10,10,"RdPu","orientMir","scaleDef","270",NA,NA
"","","","","","html-slider-response",53,159367,"0.0-49.0","j6mkwue87m",1,NA,"<div style=""width:500px;"">
                            <p style=""font-size:50px; font-weight:bold;""
                            >sad</p>
                            <div style=""width:240px; margin: auto;"">
                                <img src=""images/map02_magma_scaleDef_orientMir_270.png"" style= ""width:200px""alt=""img"">
                            </div>
                        </div>",0.3025,"",0,"",NA,"","images/map02_magma_scaleDef_orientMir_270.png","sad",1,2,2,"magma","orientMir","scaleDef","270",NA,NA
"","","","","","html-slider-response",54,161151,"0.0-50.0","j6mkwue87m",1,NA,"<div style=""width:500px;"">
                            <p style=""font-size:50px; font-weight:bold;""
                            >sad</p>
                            <div style=""width:240px; margin: auto;"">
                                <img src=""images/map05_cividis_scaleRev_orientDef_180.png"" style= ""width:200px""alt=""img"">
                            </div>
                        </div>",0.6775,"",0,"",NA,"","images/map05_cividis_scaleRev_orientDef_180.png","sad",1,5,5,"cividis","orientDef","scaleRev","180",NA,NA
"","","","","","html-slider-response",55,163066,"0.0-51.0","j6mkwue87m",1,NA,"<div style=""width:500px;"">
                            <p style=""font-size:50px; font-weight:bold;""
                            >sad</p>
                            <div style=""width:240px; margin: auto;"">
                                <img src=""images/map15_PRGn_scaleRev_orientDef_180.png"" style= ""width:200px""alt=""img"">
                            </div>
                        </div>",0.39,"",0,"",NA,"","images/map15_PRGn_scaleRev_orientDef_180.png","sad",1,15,15,"PRGn","orientDef","scaleRev","180",NA,NA
"","","","","","html-slider-response",56,164700,"0.0-52.0","j6mkwue87m",1,NA,"<div style=""width:500px;"">
                            <p style=""font-size:50px; font-weight:bold;""
                            >sad</p>
                            <div style=""width:240px; margin: auto;"">
                                <img src=""images/map27_managua_scaleDef_orientDef_090.png"" style= ""width:200px""alt=""img"">
                            </div>
                        </div>",0.6,"",0,"",NA,"","images/map27_managua_scaleDef_orientDef_090.png","sad",1,27,27,"managua","orientDef","scaleDef","090",NA,NA
"","","","","","html-slider-response",57,166149,"0.0-53.0","j6mkwue87m",1,NA,"<div style=""width:500px;"">
                            <p style=""font-size:50px; font-weight:bold;""
                            >sad</p>
                            <div style=""width:240px; margin: auto;"">
                                <img src=""images/map15_BrBG_scaleRev_orientMir_000.png"" style= ""width:200px""alt=""img"">
                            </div>
                        </div>",0.395,"",0,"",NA,"","images/map15_BrBG_scaleRev_orientMir_000.png","sad",1,15,15,"BrBG","orientMir","scaleRev","000",NA,NA
"","","","","","html-button-response",58,170305,"0.0-54.0","j6mkwue87m",1,3653,"<p>You are doing great!<br></br> You are halway done with the current block. When you are ready to continue, click the 'Continue' button.</p>",0.5,"",NA,"",NA,"","","",NA,NA,NA,"","","","",NA,NA
"","","","","","html-slider-response",59,172165,"0.0-55.0","j6mkwue87m",1,NA,"<div style=""width:500px;"">
                            <p style=""font-size:50px; font-weight:bold;""
                            >sad</p>
                            <div style=""width:240px; margin: auto;"">
                                <img src=""images/map13_YlGn_scaleDef_orientMir_090.png"" style= ""width:200px""alt=""img"">
                            </div>
                        </div>",0.415,"",0,"",NA,"","images/map13_YlGn_scaleDef_orientMir_090.png","sad",1,13,13,"YlGn","orientMir","scaleDef","090",NA,NA
"","","","","","html-slider-response",60,173634,"0.0-56.0","j6mkwue87m",1,NA,"<div style=""width:500px;"">
                            <p style=""font-size:50px; font-weight:bold;""
                            >sad</p>
                            <div style=""width:240px; margin: auto;"">
                                <img src=""images/map26_seismic_scaleDef_orientMir_090.png"" style= ""width:200px""alt=""img"">
                            </div>
                        </div>",0.5975,"",0,"",NA,"","images/map26_seismic_scaleDef_orientMir_090.png","sad",1,26,26,"seismic","orientMir","scaleDef","090",NA,NA
"","","","","","html-slider-response",61,175215,"0.0-57.0","j6mkwue87m",1,NA,"<div style=""width:500px;"">
                            <p style=""font-size:50px; font-weight:bold;""
                            >sad</p>
                            <div style=""width:240px; margin: auto;"">
                                <img src=""images/map10_OrRd_scaleRev_orientMir_000.png"" style= ""width:200px""alt=""img"">
                            </div>
                        </div>",0.43,"",0,"",NA,"","images/map10_OrRd_scaleRev_orientMir_000.png","sad",1,10,10,"OrRd","orientMir","scaleRev","000",NA,NA
"","","","","","html-slider-response",62,176681,"0.0-58.0","j6mkwue87m",1,NA,"<div style=""width:500px;"">
                            <p style=""font-size:50px; font-weight:bold;""
                            >sad</p>
                            <div style=""width:240px; margin: auto;"">
                                <img src=""images/map13_BuGn_scaleRev_orientMir_000.png"" style= ""width:200px""alt=""img"">
                            </div>
                        </div>",0.4075,"",0,"",NA,"","images/map13_BuGn_scaleRev_orientMir_000.png","sad",1,13,13,"BuGn","orientMir","scaleRev","000",NA,NA
"","","","","","html-slider-response",63,178048,"0.0-59.0","j6mkwue87m",1,NA,"<div style=""width:500px;"">
                            <p style=""font-size:50px; font-weight:bold;""
                            >sad</p>
                            <div style=""width:240px; margin: auto;"">
                                <img src=""images/map23_RdGy_scaleRev_orientDef_000.png"" style= ""width:200px""alt=""img"">
                            </div>
                        </div>",0.4025,"",0,"",NA,"","images/map23_RdGy_scaleRev_orientDef_000.png","sad",1,23,23,"RdGy","orientDef","scaleRev","000",NA,NA
"","","","","","html-slider-response",64,179364,"0.0-60.0","j6mkwue87m",1,NA,"<div style=""width:500px;"">
                            <p style=""font-size:50px; font-weight:bold;""
                            >sad</p>
                            <div style=""width:240px; margin: auto;"">
                                <img src=""images/map26_berlin_scaleDef_orientMir_270.png"" style= ""width:200px""alt=""img"">
                            </div>
                        </div>",0.4025,"",0,"",NA,"","images/map26_berlin_scaleDef_orientMir_270.png","sad",1,26,26,"berlin","orientMir","scaleDef","270",NA,NA
"","","","","","html-slider-response",65,180781,"0.0-61.0","j6mkwue87m",1,NA,"<div style=""width:500px;"">
                            <p style=""font-size:50px; font-weight:bold;""
                            >sad</p>
                            <div style=""width:240px; margin: auto;"">
                                <img src=""images/map10_YlOrBr_scaleRev_orientDef_000.png"" style= ""width:200px""alt=""img"">
                            </div>
                        </div>",0.39,"",0,"",NA,"","images/map10_YlOrBr_scaleRev_orientDef_000.png","sad",1,10,10,"YlOrBr","orientDef","scaleRev","000",NA,NA
"","","","","","html-slider-response",66,182666,"0.0-62.0","j6mkwue87m",1,NA,"<div style=""width:500px;"">
                            <p style=""font-size:50px; font-weight:bold;""
                            >sad</p>
                            <div style=""width:240px; margin: auto;"">
                                <img src=""images/map05_Greys_scaleRev_orientMir_000.png"" style= ""width:200px""alt=""img"">
                            </div>
                        </div>",1,"",0,"",NA,"","images/map05_Greys_scaleRev_orientMir_000.png","sad",1,5,5,"Greys","orientMir","scaleRev","000",NA,NA
"","","","","","html-slider-response",67,184432,"0.0-63.0","j6mkwue87m",1,NA,"<div style=""width:500px;"">
                            <p style=""font-size:50px; font-weight:bold;""
                            >sad</p>
                            <div style=""width:240px; margin: auto;"">
                                <img src=""images/map10_YlOrRd_scaleDef_orientDef_090.png"" style= ""width:200px""alt=""img"">
                            </div>
                        </div>",0.415,"",0,"",NA,"","images/map10_YlOrRd_scaleDef_orientDef_090.png","sad",1,10,10,"YlOrRd","orientDef","scaleDef","090",NA,NA
"","","","","","html-slider-response",68,185782,"0.0-64.0","j6mkwue87m",1,NA,"<div style=""width:500px;"">
                            <p style=""font-size:50px; font-weight:bold;""
                            >sad</p>
                            <div style=""width:240px; margin: auto;"">
                                <img src=""images/map05_magma_scaleRev_orientDef_000.png"" style= ""width:200px""alt=""img"">
                            </div>
                        </div>",0.4175,"",0,"",NA,"","images/map05_magma_scaleRev_orientDef_000.png","sad",1,5,5,"magma","orientDef","scaleRev","000",NA,NA
"","","","","","html-slider-response",69,187617,"0.0-65.0","j6mkwue87m",1,NA,"<div style=""width:500px;"">
                            <p style=""font-size:50px; font-weight:bold;""
                            >sad</p>
                            <div style=""width:240px; margin: auto;"">
                                <img src=""images/map27_gist_earth_scaleRev_orientMir_180.png"" style= ""width:200px""alt=""img"">
                            </div>
                        </div>",0.315,"",0,"",NA,"","images/map27_gist_earth_scaleRev_orientMir_180.png","sad",1,27,27,"gist","scaleRev","earth","orientMir",NA,NA
"","","","","","html-slider-response",70,189332,"0.0-66.0","j6mkwue87m",1,NA,"<div style=""width:500px;"">
                            <p style=""font-size:50px; font-weight:bold;""
                            >sad</p>
                            <div style=""width:240px; margin: auto;"">
                                <img src=""images/map13_BuGn_scaleDef_orientDef_270.png"" style= ""width:200px""alt=""img"">
                            </div>
                        </div>",0.3825,"",0,"",NA,"","images/map13_BuGn_scaleDef_orientDef_270.png","sad",1,13,13,"BuGn","orientDef","scaleDef","270",NA,NA
"","","","","","html-slider-response",71,191098,"0.0-67.0","j6mkwue87m",1,NA,"<div style=""width:500px;"">
                            <p style=""font-size:50px; font-weight:bold;""
                            >sad</p>
                            <div style=""width:240px; margin: auto;"">
                                <img src=""images/map05_cividis_scaleDef_orientDef_090.png"" style= ""width:200px""alt=""img"">
                            </div>
                        </div>",0.3375,"",0,"",NA,"","images/map05_cividis_scaleDef_orientDef_090.png","sad",1,5,5,"cividis","orientDef","scaleDef","090",NA,NA
"","","","","","html-slider-response",72,192948,"0.0-68.0","j6mkwue87m",1,NA,"<div style=""width:500px;"">
                            <p style=""font-size:50px; font-weight:bold;""
                            >sad</p>
                            <div style=""width:240px; margin: auto;"">
                                <img src=""images/map02_viridis_scaleDef_orientDef_090.png"" style= ""width:200px""alt=""img"">
                            </div>
                        </div>",0.3575,"",0,"",NA,"","images/map02_viridis_scaleDef_orientDef_090.png","sad",1,2,2,"viridis","orientDef","scaleDef","090",NA,NA
"","","","","","html-slider-response",73,194816,"0.0-69.0","j6mkwue87m",1,NA,"<div style=""width:500px;"">
                            <p style=""font-size:50px; font-weight:bold;""
                            >sad</p>
                            <div style=""width:240px; margin: auto;"">
                                <img src=""images/map23_RdYlGn_scaleDef_orientMir_090.png"" style= ""width:200px""alt=""img"">
                            </div>
                        </div>",0.2375,"",0,"",NA,"","images/map23_RdYlGn_scaleDef_orientMir_090.png","sad",1,23,23,"RdYlGn","orientMir","scaleDef","090",NA,NA
"","","","","","html-slider-response",74,196581,"0.0-70.0","j6mkwue87m",1,NA,"<div style=""width:500px;"">
                            <p style=""font-size:50px; font-weight:bold;""
                            >sad</p>
                            <div style=""width:240px; margin: auto;"">
                                <img src=""images/map27_berlin_scaleRev_orientDef_000.png"" style= ""width:200px""alt=""img"">
                            </div>
                        </div>",0.415,"",0,"",NA,"","images/map27_berlin_scaleRev_orientDef_000.png","sad",1,27,27,"berlin","orientDef","scaleRev","000",NA,NA
"","","","","","html-slider-response",75,198047,"0.0-71.0","j6mkwue87m",1,NA,"<div style=""width:500px;"">
                            <p style=""font-size:50px; font-weight:bold;""
                            >sad</p>
                            <div style=""width:240px; margin: auto;"">
                                <img src=""images/map26_seismic_scaleRev_orientMir_180.png"" style= ""width:200px""alt=""img"">
                            </div>
                        </div>",0.7275,"",0,"",NA,"","images/map26_seismic_scaleRev_orientMir_180.png","sad",1,26,26,"seismic","orientMir","scaleRev","180",NA,NA
"","","","","","html-slider-response",76,199814,"0.0-72.0","j6mkwue87m",1,NA,"<div style=""width:500px;"">
                            <p style=""font-size:50px; font-weight:bold;""
                            >sad</p>
                            <div style=""width:240px; margin: auto;"">
                                <img src=""images/map02_inferno_scaleDef_orientMir_090.png"" style= ""width:200px""alt=""img"">
                            </div>
                        </div>",0.425,"",0,"",NA,"","images/map02_inferno_scaleDef_orientMir_090.png","sad",1,2,2,"inferno","orientMir","scaleDef","090",NA,NA
"","","","","","html-slider-response",77,201315,"0.0-73.0","j6mkwue87m",1,NA,"<div style=""width:500px;"">
                            <p style=""font-size:50px; font-weight:bold;""
                            >sad</p>
                            <div style=""width:240px; margin: auto;"">
                                <img src=""images/map07_Greens_scaleDef_orientDef_090.png"" style= ""width:200px""alt=""img"">
                            </div>
                        </div>",0.355,"",0,"",NA,"","images/map07_Greens_scaleDef_orientDef_090.png","sad",1,7,7,"Greens","orientDef","scaleDef","090",NA,NA
"","","","","","html-slider-response",78,202780,"0.0-74.0","j6mkwue87m",1,NA,"<div style=""width:500px;"">
                            <p style=""font-size:50px; font-weight:bold;""
                            >sad</p>
                            <div style=""width:240px; margin: auto;"">
                                <img src=""images/map12_GnBu_scaleRev_orientMir_000.png"" style= ""width:200px""alt=""img"">
                            </div>
                        </div>",1,"",0,"",NA,"","images/map12_GnBu_scaleRev_orientMir_000.png","sad",1,12,12,"GnBu","orientMir","scaleRev","000",NA,NA
"","","","","","html-slider-response",79,204532,"0.0-75.0","j6mkwue87m",1,NA,"<div style=""width:500px;"">
                            <p style=""font-size:50px; font-weight:bold;""
                            >sad</p>
                            <div style=""width:240px; margin: auto;"">
                                <img src=""images/map07_Greens_scaleRev_orientDef_180.png"" style= ""width:200px""alt=""img"">
                            </div>
                        </div>",0.39,"",0,"",NA,"","images/map07_Greens_scaleRev_orientDef_180.png","sad",1,7,7,"Greens","orientDef","scaleRev","180",NA,NA
"","","","","","html-slider-response",80,206348,"0.0-76.0","j6mkwue87m",1,NA,"<div style=""width:500px;"">
                            <p style=""font-size:50px; font-weight:bold;""
                            >sad</p>
                            <div style=""width:240px; margin: auto;"">
                                <img src=""images/map12_RdPu_scaleRev_orientDef_000.png"" style= ""width:200px""alt=""img"">
                            </div>
                        </div>",0,"",0,"",NA,"","images/map12_RdPu_scaleRev_orientDef_000.png","sad",1,12,12,"RdPu","orientDef","scaleRev","000",NA,NA
"","","","","","html-slider-response",81,208199,"0.0-77.0","j6mkwue87m",1,NA,"<div style=""width:500px;"">
                            <p style=""font-size:50px; font-weight:bold;""
                            >sad</p>
                            <div style=""width:240px; margin: auto;"">
                                <img src=""images/map26_coolwarm_scaleDef_orientDef_090.png"" style= ""width:200px""alt=""img"">
                            </div>
                        </div>",0.6075,"",0,"",NA,"","images/map26_coolwarm_scaleDef_orientDef_090.png","sad",1,26,26,"coolwarm","orientDef","scaleDef","090",NA,NA
"","","","","","html-slider-response",82,209650,"0.0-78.0","j6mkwue87m",1,NA,"<div style=""width:500px;"">
                            <p style=""font-size:50px; font-weight:bold;""
                            >sad</p>
                            <div style=""width:240px; margin: auto;"">
                                <img src=""images/map15_RdGy_scaleDef_orientMir_270.png"" style= ""width:200px""alt=""img"">
                            </div>
                        </div>",0.335,"",0,"",NA,"","images/map15_RdGy_scaleDef_orientMir_270.png","sad",1,15,15,"RdGy","orientMir","scaleDef","270",NA,NA
"","","","","","html-slider-response",83,211098,"0.0-79.0","j6mkwue87m",1,NA,"<div style=""width:500px;"">
                            <p style=""font-size:50px; font-weight:bold;""
                            >sad</p>
                            <div style=""width:240px; margin: auto;"">
                                <img src=""images/map27_vanimo_scaleRev_orientMir_000.png"" style= ""width:200px""alt=""img"">
                            </div>
                        </div>",0.385,"",0,"",NA,"","images/map27_vanimo_scaleRev_orientMir_000.png","sad",1,27,27,"vanimo","orientMir","scaleRev","000",NA,NA
"","","","","","html-slider-response",84,212914,"0.0-80.0","j6mkwue87m",1,NA,"<div style=""width:500px;"">
                            <p style=""font-size:50px; font-weight:bold;""
                            >sad</p>
                            <div style=""width:240px; margin: auto;"">
                                <img src=""images/map13_PuBuGn_scaleDef_orientDef_090.png"" style= ""width:200px""alt=""img"">
                            </div>
                        </div>",1,"",0,"",NA,"","images/map13_PuBuGn_scaleDef_orientDef_090.png","sad",1,13,13,"PuBuGn","orientDef","scaleDef","090",NA,NA
"","","","","","html-slider-response",85,214800,"0.0-81.0","j6mkwue87m",1,NA,"<div style=""width:500px;"">
                            <p style=""font-size:50px; font-weight:bold;""
                            >sad</p>
                            <div style=""width:240px; margin: auto;"">
                                <img src=""images/map13_PiYG_scaleDef_orientMir_270.png"" style= ""width:200px""alt=""img"">
                            </div>
                        </div>",0.37,"",0,"",NA,"","images/map13_PiYG_scaleDef_orientMir_270.png","sad",1,13,13,"PiYG","orientMir","scaleDef","270",NA,NA
"","","","","","html-slider-response",86,216948,"0.0-82.0","j6mkwue87m",1,NA,"<div style=""width:500px;"">
                            <p style=""font-size:50px; font-weight:bold;""
                            >sad</p>
                            <div style=""width:240px; margin: auto;"">
                                <img src=""images/map23_RdYlBu_scaleRev_orientMir_000.png"" style= ""width:200px""alt=""img"">
                            </div>
                        </div>",0.425,"",0,"",NA,"","images/map23_RdYlBu_scaleRev_orientMir_000.png","sad",1,23,23,"RdYlBu","orientMir","scaleRev","000",NA,NA
"","","","","","html-slider-response",87,218314,"0.0-83.0","j6mkwue87m",1,NA,"<div style=""width:500px;"">
                            <p style=""font-size:50px; font-weight:bold;""
                            >sad</p>
                            <div style=""width:240px; margin: auto;"">
                                <img src=""images/map15_PRGn_scaleDef_orientDef_090.png"" style= ""width:200px""alt=""img"">
                            </div>
                        </div>",0.3775,"",0,"",NA,"","images/map15_PRGn_scaleDef_orientDef_090.png","sad",1,15,15,"PRGn","orientDef","scaleDef","090",NA,NA
"","","","","","html-slider-response",88,220249,"0.0-84.0","j6mkwue87m",1,NA,"<div style=""width:500px;"">
                            <p style=""font-size:50px; font-weight:bold;""
                            >sad</p>
                            <div style=""width:240px; margin: auto;"">
                                <img src=""images/map15_BrBG_scaleDef_orientDef_270.png"" style= ""width:200px""alt=""img"">
                            </div>
                        </div>",0.4225,"",0,"",NA,"","images/map15_BrBG_scaleDef_orientDef_270.png","sad",1,15,15,"BrBG","orientDef","scaleDef","270",NA,NA
"","","","","","html-slider-response",89,221679,"0.0-85.0","j6mkwue87m",1,NA,"<div style=""width:500px;"">
                            <p style=""font-size:50px; font-weight:bold;""
                            >sad</p>
                            <div style=""width:240px; margin: auto;"">
                                <img src=""images/map10_PuRd_scaleDef_orientMir_090.png"" style= ""width:200px""alt=""img"">
                            </div>
                        </div>",0,"",0,"",NA,"","images/map10_PuRd_scaleDef_orientMir_090.png","sad",1,10,10,"PuRd","orientMir","scaleDef","090",NA,NA
"","","","","","html-slider-response",90,223364,"0.0-86.0","j6mkwue87m",1,NA,"<div style=""width:500px;"">
                            <p style=""font-size:50px; font-weight:bold;""
                            >sad</p>
                            <div style=""width:240px; margin: auto;"">
                                <img src=""images/map02_plasma_scaleRev_orientMir_000.png"" style= ""width:200px""alt=""img"">
                            </div>
                        </div>",0.41,"",0,"",NA,"","images/map02_plasma_scaleRev_orientMir_000.png","sad",1,2,2,"plasma","orientMir","scaleRev","000",NA,NA
"","","","","","html-slider-response",91,224764,"0.0-87.0","j6mkwue87m",1,NA,"<div style=""width:500px;"">
                            <p style=""font-size:50px; font-weight:bold;""
                            >sad</p>
                            <div style=""width:240px; margin: auto;"">
                                <img src=""images/map26_Spectral_scaleRev_orientDef_000.png"" style= ""width:200px""alt=""img"">
                            </div>
                        </div>",0.395,"",0,"",NA,"","images/map26_Spectral_scaleRev_orientDef_000.png","sad",1,26,26,"Spectral","orientDef","scaleRev","000",NA,NA
"","","","","","html-slider-response",92,226313,"0.0-88.0","j6mkwue87m",1,NA,"<div style=""width:500px;"">
                            <p style=""font-size:50px; font-weight:bold;""
                            >sad</p>
                            <div style=""width:240px; margin: auto;"">
                                <img src=""images/map13_PuBuGn_scaleRev_orientDef_180.png"" style= ""width:200px""alt=""img"">
                            </div>
                        </div>",1,"",0,"",NA,"","images/map13_PuBuGn_scaleRev_orientDef_180.png","sad",1,13,13,"PuBuGn","orientDef","scaleRev","180",NA,NA
"","","","","","html-slider-response",93,228132,"0.0-89.0","j6mkwue87m",1,NA,"<div style=""width:500px;"">
                            <p style=""font-size:50px; font-weight:bold;""
                            >sad</p>
                            <div style=""width:240px; margin: auto;"">
                                <img src=""images/map07_Reds_scaleDef_orientMir_090.png"" style= ""width:200px""alt=""img"">
                            </div>
                        </div>",0.4025,"",0,"",NA,"","images/map07_Reds_scaleDef_orientMir_090.png","sad",1,7,7,"Reds","orientMir","scaleDef","090",NA,NA
"","","","","","html-slider-response",94,229747,"0.0-90.0","j6mkwue87m",1,NA,"<div style=""width:500px;"">
                            <p style=""font-size:50px; font-weight:bold;""
                            >sad</p>
                            <div style=""width:240px; margin: auto;"">
                                <img src=""images/map23_RdYlBu_scaleDef_orientDef_270.png"" style= ""width:200px""alt=""img"">
                            </div>
                        </div>",0.415,"",0,"",NA,"","images/map23_RdYlBu_scaleDef_orientDef_270.png","sad",1,23,23,"RdYlBu","orientDef","scaleDef","270",NA,NA
"","","","","","html-slider-response",95,231165,"0.0-91.0","j6mkwue87m",1,NA,"<div style=""width:500px;"">
                            <p style=""font-size:50px; font-weight:bold;""
                            >sad</p>
                            <div style=""width:240px; margin: auto;"">
                                <img src=""images/map12_GnBu_scaleDef_orientDef_270.png"" style= ""width:200px""alt=""img"">
                            </div>
                        </div>",1,"",0,"",NA,"","images/map12_GnBu_scaleDef_orientDef_270.png","sad",1,12,12,"GnBu","orientDef","scaleDef","270",NA,NA
"","","","","","html-slider-response",96,232714,"0.0-92.0","j6mkwue87m",1,NA,"<div style=""width:500px;"">
                            <p style=""font-size:50px; font-weight:bold;""
                            >sad</p>
                            <div style=""width:240px; margin: auto;"">
                                <img src=""images/map12_PuBu_scaleDef_orientMir_090.png"" style= ""width:200px""alt=""img"">
                            </div>
                        </div>",1,"",0,"",NA,"","images/map12_PuBu_scaleDef_orientMir_090.png","sad",1,12,12,"PuBu","orientMir","scaleDef","090",NA,NA
"","","","","","html-slider-response",97,234897,"0.0-93.0","j6mkwue87m",1,NA,"<div style=""width:500px;"">
                            <p style=""font-size:50px; font-weight:bold;""
                            >sad</p>
                            <div style=""width:240px; margin: auto;"">
                                <img src=""images/map23_RdBu_scaleRev_orientDef_180.png"" style= ""width:200px""alt=""img"">
                            </div>
                        </div>",0.4325,"",0,"",NA,"","images/map23_RdBu_scaleRev_orientDef_180.png","sad",1,23,23,"RdBu","orientDef","scaleRev","180",NA,NA
"","","","","","html-slider-response",98,236730,"0.0-94.0","j6mkwue87m",1,NA,"<div style=""width:500px;"">
                            <p style=""font-size:50px; font-weight:bold;""
                            >sad</p>
                            <div style=""width:240px; margin: auto;"">
                                <img src=""images/map26_bwr_scaleRev_orientMir_000.png"" style= ""width:200px""alt=""img"">
                            </div>
                        </div>",0.6225,"",0,"",NA,"","images/map26_bwr_scaleRev_orientMir_000.png","sad",1,26,26,"bwr","orientMir","scaleRev","000",NA,NA
"","","","","","html-button-response",99,239886,"0.0-95.0","j6mkwue87m",1,2654,"<p>Great Job! You've finished block 1.<br></br> You have 4 block(s) left to go.<br></br></p>",0.5,"",NA,"",NA,"","","",NA,NA,NA,"","","","",NA,NA
"","","","","","html-button-response",100,240886,"0.0-96.0","j6mkwue87m",1,999,"<p>In this block of trials, you will be asked to rate how much you associate each map with:</p > <p style = 'font-size:150%; font-weight: bold'>happy</p><br></br>",0.5,"",NA,"",NA,"","","",NA,NA,NA,"","","","",NA,NA
"","","","","","html-slider-response",101,243649,"0.0-97.0","j6mkwue87m",1,NA,"<div style=""width:500px;"">
                            <p style=""font-size:50px; font-weight:bold;""
                            >happy</p>
                            <div style=""width:240px; margin: auto;"">
                                <img src=""images/map27_gist_earth_scaleDef_orientMir_090.png"" style= ""width:200px""alt=""img"">
                            </div>
                        </div>",0.545,"",0,"",NA,"","images/map27_gist_earth_scaleDef_orientMir_090.png","happy",1,27,27,"gist","scaleDef","earth","orientMir",NA,NA
"","","","","","html-slider-response",102,245830,"0.0-98.0","j6mkwue87m",1,NA,"<div style=""width:500px;"">
                            <p style=""font-size:50px; font-weight:bold;""
                            >happy</p>
                            <div style=""width:240px; margin: auto;"">
                                <img src=""images/map07_Greens_scaleRev_orientDef_180.png"" style= ""width:200px""alt=""img"">
                            </div>
                        </div>",0.545,"",0,"",NA,"","images/map07_Greens_scaleRev_orientDef_180.png","happy",1,7,7,"Greens","orientDef","scaleRev","180",NA,NA
"","","","","","html-slider-response",103,247829,"0.0-99.0","j6mkwue87m",1,NA,"<div style=""width:500px;"">
                            <p style=""font-size:50px; font-weight:bold;""
                            >happy</p>
                            <div style=""width:240px; margin: auto;"">
                                <img src=""images/map23_Spectral_scaleDef_orientMir_270.png"" style= ""width:200px""alt=""img"">
                            </div>
                        </div>",0.415,"",0,"",NA,"","images/map23_Spectral_scaleDef_orientMir_270.png","happy",1,23,23,"Spectral","orientMir","scaleDef","270",NA,NA
"","","","","","html-slider-response",104,250496,"0.0-100.0","j6mkwue87m",1,NA,"<div style=""width:500px;"">
                            <p style=""font-size:50px; font-weight:bold;""
                            >happy</p>
                            <div style=""width:240px; margin: auto;"">
                                <img src=""images/map02_turbo_scaleRev_orientDef_000.png"" style= ""width:200px""alt=""img"">
                            </div>
                        </div>",0.445,"",0,"",NA,"","images/map02_turbo_scaleRev_orientDef_000.png","happy",1,2,2,"turbo","orientDef","scaleRev","000",NA,NA
"","","","","","html-slider-response",105,252296,"0.0-101.0","j6mkwue87m",1,NA,"<div style=""width:500px;"">
                            <p style=""font-size:50px; font-weight:bold;""
                            >happy</p>
                            <div style=""width:240px; margin: auto;"">
                                <img src=""images/map27_managua_scaleRev_orientDef_180.png"" style= ""width:200px""alt=""img"">
                            </div>
                        </div>",0.44,"",0,"",NA,"","images/map27_managua_scaleRev_orientDef_180.png","happy",1,27,27,"managua","orientDef","scaleRev","180",NA,NA
"","","","","","html-slider-response",106,254647,"0.0-102.0","j6mkwue87m",1,NA,"<div style=""width:500px;"">
                            <p style=""font-size:50px; font-weight:bold;""
                            >happy</p>
                            <div style=""width:240px; margin: auto;"">
                                <img src=""images/map13_BuGn_scaleRev_orientMir_000.png"" style= ""width:200px""alt=""img"">
                            </div>
                        </div>",0.5775,"",0,"",NA,"","images/map13_BuGn_scaleRev_orientMir_000.png","happy",1,13,13,"BuGn","orientMir","scaleRev","000",NA,NA
"","","","","","html-slider-response",107,256515,"0.0-103.0","j6mkwue87m",1,NA,"<div style=""width:500px;"">
                            <p style=""font-size:50px; font-weight:bold;""
                            >happy</p>
                            <div style=""width:240px; margin: auto;"">
                                <img src=""images/map26_bwr_scaleDef_orientDef_270.png"" style= ""width:200px""alt=""img"">
                            </div>
                        </div>",0.635,"",0,"",NA,"","images/map26_bwr_scaleDef_orientDef_270.png","happy",1,26,26,"bwr","orientDef","scaleDef","270",NA,NA
"","","","","","html-slider-response",108,258261,"0.0-104.0","j6mkwue87m",1,NA,"<div style=""width:500px;"">
                            <p style=""font-size:50px; font-weight:bold;""
                            >happy</p>
                            <div style=""width:240px; margin: auto;"">
                                <img src=""images/map26_coolwarm_scaleDef_orientDef_090.png"" style= ""width:200px""alt=""img"">
                            </div>
                        </div>",0.6025,"",0,"",NA,"","images/map26_coolwarm_scaleDef_orientDef_090.png","happy",1,26,26,"coolwarm","orientDef","scaleDef","090",NA,NA
"","","","","","html-slider-response",109,260114,"0.0-105.0","j6mkwue87m",1,NA,"<div style=""width:500px;"">
                            <p style=""font-size:50px; font-weight:bold;""
                            >happy</p>
                            <div style=""width:240px; margin: auto;"">
                                <img src=""images/map27_vanimo_scaleRev_orientMir_000.png"" style= ""width:200px""alt=""img"">
                            </div>
                        </div>",0.415,"",0,"",NA,"","images/map27_vanimo_scaleRev_orientMir_000.png","happy",1,27,27,"vanimo","orientMir","scaleRev","000",NA,NA
"","","","","","html-slider-response",110,261662,"0.0-106.0","j6mkwue87m",1,NA,"<div style=""width:500px;"">
                            <p style=""font-size:50px; font-weight:bold;""
                            >happy</p>
                            <div style=""width:240px; margin: auto;"">
                                <img src=""images/map23_RdYlGn_scaleRev_orientMir_180.png"" style= ""width:200px""alt=""img"">
                            </div>
                        </div>",0.3625,"",0,"",NA,"","images/map23_RdYlGn_scaleRev_orientMir_180.png","happy",1,23,23,"RdYlGn","orientMir","scaleRev","180",NA,NA
"","","","","","html-slider-response",111,263097,"0.0-107.0","j6mkwue87m",1,NA,"<div style=""width:500px;"">
                            <p style=""font-size:50px; font-weight:bold;""
                            >happy</p>
                            <div style=""width:240px; margin: auto;"">
                                <img src=""images/map27_managua_scaleDef_orientDef_090.png"" style= ""width:200px""alt=""img"">
                            </div>
                        </div>",0.4075,"",0,"",NA,"","images/map27_managua_scaleDef_orientDef_090.png","happy",1,27,27,"managua","orientDef","scaleDef","090",NA,NA
"","","","","","html-slider-response",112,264914,"0.0-108.0","j6mkwue87m",1,NA,"<div style=""width:500px;"">
                            <p style=""font-size:50px; font-weight:bold;""
                            >happy</p>
                            <div style=""width:240px; margin: auto;"">
                                <img src=""images/map13_YlGnBu_scaleRev_orientDef_000.png"" style= ""width:200px""alt=""img"">
                            </div>
                        </div>",0.4075,"",0,"",NA,"","images/map13_YlGnBu_scaleRev_orientDef_000.png","happy",1,13,13,"YlGnBu","orientDef","scaleRev","000",NA,NA
"","","","","","html-slider-response",113,266479,"0.0-109.0","j6mkwue87m",1,NA,"<div style=""width:500px;"">
                            <p style=""font-size:50px; font-weight:bold;""
                            >happy</p>
                            <div style=""width:240px; margin: auto;"">
                                <img src=""images/map13_BuGn_scaleDef_orientDef_270.png"" style= ""width:200px""alt=""img"">
                            </div>
                        </div>",0.5875,"",0,"",NA,"","images/map13_BuGn_scaleDef_orientDef_270.png","happy",1,13,13,"BuGn","orientDef","scaleDef","270",NA,NA
"","","","","","html-slider-response",114,268396,"0.0-110.0","j6mkwue87m",1,NA,"<div style=""width:500px;"">
                            <p style=""font-size:50px; font-weight:bold;""
                            >happy</p>
                            <div style=""width:240px; margin: auto;"">
                                <img src=""images/map07_Oranges_scaleRev_orientMir_000.png"" style= ""width:200px""alt=""img"">
                            </div>
                        </div>",0.375,"",0,"",NA,"","images/map07_Oranges_scaleRev_orientMir_000.png","happy",1,7,7,"Oranges","orientMir","scaleRev","000",NA,NA
"","","","","","html-slider-response",115,270230,"0.0-111.0","j6mkwue87m",1,NA,"<div style=""width:500px;"">
                            <p style=""font-size:50px; font-weight:bold;""
                            >happy</p>
                            <div style=""width:240px; margin: auto;"">
                                <img src=""images/map02_viridis_scaleDef_orientDef_090.png"" style= ""width:200px""alt=""img"">
                            </div>
                        </div>",0.5775,"",0,"",NA,"","images/map02_viridis_scaleDef_orientDef_090.png","happy",1,2,2,"viridis","orientDef","scaleDef","090",NA,NA
"","","","","","html-slider-response",116,271663,"0.0-112.0","j6mkwue87m",1,NA,"<div style=""width:500px;"">
                            <p style=""font-size:50px; font-weight:bold;""
                            >happy</p>
                            <div style=""width:240px; margin: auto;"">
                                <img src=""images/map26_Spectral_scaleRev_orientDef_000.png"" style= ""width:200px""alt=""img"">
                            </div>
                        </div>",0.4,"",0,"",NA,"","images/map26_Spectral_scaleRev_orientDef_000.png","happy",1,26,26,"Spectral","orientDef","scaleRev","000",NA,NA
"","","","","","html-slider-response",117,273313,"0.0-113.0","j6mkwue87m",1,NA,"<div style=""width:500px;"">
                            <p style=""font-size:50px; font-weight:bold;""
                            >happy</p>
                            <div style=""width:240px; margin: auto;"">
                                <img src=""images/map23_RdYlBu_scaleRev_orientMir_000.png"" style= ""width:200px""alt=""img"">
                            </div>
                        </div>",0.4375,"",0,"",NA,"","images/map23_RdYlBu_scaleRev_orientMir_000.png","happy",1,23,23,"RdYlBu","orientMir","scaleRev","000",NA,NA
"","","","","","html-slider-response",118,274969,"0.0-114.0","j6mkwue87m",1,NA,"<div style=""width:500px;"">
                            <p style=""font-size:50px; font-weight:bold;""
                            >happy</p>
                            <div style=""width:240px; margin: auto;"">
                                <img src=""images/map15_PiYG_scaleRev_orientDef_000.png"" style= ""width:200px""alt=""img"">
                            </div>
                        </div>",1,"",0,"",NA,"","images/map15_PiYG_scaleRev_orientDef_000.png","happy",1,15,15,"PiYG","orientDef","scaleRev","000",NA,NA
"","","","","","html-slider-response",119,277513,"0.0-115.0","j6mkwue87m",1,NA,"<div style=""width:500px;"">
                            <p style=""font-size:50px; font-weight:bold;""
                            >happy</p>
                            <div style=""width:240px; margin: auto;"">
                                <img src=""images/map10_RdPu_scaleDef_orientMir_270.png"" style= ""width:200px""alt=""img"">
                            </div>
                        </div>",0.6675,"",0,"",NA,"","images/map10_RdPu_scaleDef_orientMir_270.png","happy",1,10,10,"RdPu","orientMir","scaleDef","270",NA,NA
"","","","","","html-slider-response",120,279179,"0.0-116.0","j6mkwue87m",1,NA,"<div style=""width:500px;"">
                            <p style=""font-size:50px; font-weight:bold;""
                            >happy</p>
                            <div style=""width:240px; margin: auto;"">
                                <img src=""images/map05_Purples_scaleDef_orientMir_090.png"" style= ""width:200px""alt=""img"">
                            </div>
                        </div>",0.675,"",0,"",NA,"","images/map05_Purples_scaleDef_orientMir_090.png","happy",1,5,5,"Purples","orientMir","scaleDef","090",NA,NA
"","","","","","html-slider-response",121,280712,"0.0-117.0","j6mkwue87m",1,NA,"<div style=""width:500px;"">
                            <p style=""font-size:50px; font-weight:bold;""
                            >happy</p>
                            <div style=""width:240px; margin: auto;"">
                                <img src=""images/map12_RdPu_scaleRev_orientDef_000.png"" style= ""width:200px""alt=""img"">
                            </div>
                        </div>",0.955,"",0,"",NA,"","images/map12_RdPu_scaleRev_orientDef_000.png","happy",1,12,12,"RdPu","orientDef","scaleRev","000",NA,NA
"","","","","","html-slider-response",122,282513,"0.0-118.0","j6mkwue87m",1,NA,"<div style=""width:500px;"">
                            <p style=""font-size:50px; font-weight:bold;""
                            >happy</p>
                            <div style=""width:240px; margin: auto;"">
                                <img src=""images/map05_Greys_scaleDef_orientDef_270.png"" style= ""width:200px""alt=""img"">
                            </div>
                        </div>",0,"",0,"",NA,"","images/map05_Greys_scaleDef_orientDef_270.png","happy",1,5,5,"Greys","orientDef","scaleDef","270",NA,NA
"","","","","","html-slider-response",123,284230,"0.0-119.0","j6mkwue87m",1,NA,"<div style=""width:500px;"">
                            <p style=""font-size:50px; font-weight:bold;""
                            >happy</p>
                            <div style=""width:240px; margin: auto;"">
                                <img src=""images/map02_viridis_scaleRev_orientDef_180.png"" style= ""width:200px""alt=""img"">
                            </div>
                        </div>",0.425,"",0,"",NA,"","images/map02_viridis_scaleRev_orientDef_180.png","happy",1,2,2,"viridis","orientDef","scaleRev","180",NA,NA
"","","","","","html-slider-response",124,285795,"0.0-120.0","j6mkwue87m",1,NA,"<div style=""width:500px;"">
                            <p style=""font-size:50px; font-weight:bold;""
                            >happy</p>
                            <div style=""width:240px; margin: auto;"">
                                <img src=""images/map27_vanimo_scaleDef_orientDef_270.png"" style= ""width:200px""alt=""img"">
                            </div>
                        </div>",0.3675,"",0,"",NA,"","images/map27_vanimo_scaleDef_orientDef_270.png","happy",1,27,27,"vanimo","orientDef","scaleDef","270",NA,NA
"","","","","","html-slider-response",125,287494,"0.0-121.0","j6mkwue87m",1,NA,"<div style=""width:500px;"">
                            <p style=""font-size:50px; font-weight:bold;""
                            >happy</p>
                            <div style=""width:240px; margin: auto;"">
                                <img src=""images/map12_PuBu_scaleDef_orientMir_090.png"" style= ""width:200px""alt=""img"">
                            </div>
                        </div>",0.38,"",0,"",NA,"","images/map12_PuBu_scaleDef_orientMir_090.png","happy",1,12,12,"PuBu","orientMir","scaleDef","090",NA,NA
"","","","","","html-slider-response",126,289813,"0.0-122.0","j6mkwue87m",1,NA,"<div style=""width:500px;"">
                            <p style=""font-size:50px; font-weight:bold;""
                            >happy</p>
                            <div style=""width:240px; margin: auto;"">
                                <img src=""images/map02_plasma_scaleRev_orientMir_000.png"" style= ""width:200px""alt=""img"">
                            </div>
                        </div>",0.35,"",0,"",NA,"","images/map02_plasma_scaleRev_orientMir_000.png","happy",1,2,2,"plasma","orientMir","scaleRev","000",NA,NA
"","","","","","html-slider-response",127,291879,"0.0-123.0","j6mkwue87m",1,NA,"<div style=""width:500px;"">
                            <p style=""font-size:50px; font-weight:bold;""
                            >happy</p>
                            <div style=""width:240px; margin: auto;"">
                                <img src=""images/map05_Purples_scaleRev_orientMir_180.png"" style= ""width:200px""alt=""img"">
                            </div>
                        </div>",0.645,"",0,"",NA,"","images/map05_Purples_scaleRev_orientMir_180.png","happy",1,5,5,"Purples","orientMir","scaleRev","180",NA,NA
"","","","","","html-slider-response",128,293379,"0.0-124.0","j6mkwue87m",1,NA,"<div style=""width:500px;"">
                            <p style=""font-size:50px; font-weight:bold;""
                            >happy</p>
                            <div style=""width:240px; margin: auto;"">
                                <img src=""images/map27_berlin_scaleRev_orientDef_000.png"" style= ""width:200px""alt=""img"">
                            </div>
                        </div>",0.3075,"",0,"",NA,"","images/map27_berlin_scaleRev_orientDef_000.png","happy",1,27,27,"berlin","orientDef","scaleRev","000",NA,NA
"","","","","","html-slider-response",129,295461,"0.0-125.0","j6mkwue87m",1,NA,"<div style=""width:500px;"">
                            <p style=""font-size:50px; font-weight:bold;""
                            >happy</p>
                            <div style=""width:240px; margin: auto;"">
                                <img src=""images/map15_BrBG_scaleDef_orientDef_270.png"" style= ""width:200px""alt=""img"">
                            </div>
                        </div>",0.395,"",0,"",NA,"","images/map15_BrBG_scaleDef_orientDef_270.png","happy",1,15,15,"BrBG","orientDef","scaleDef","270",NA,NA
"","","","","","html-slider-response",130,298695,"0.0-126.0","j6mkwue87m",1,NA,"<div style=""width:500px;"">
                            <p style=""font-size:50px; font-weight:bold;""
                            >happy</p>
                            <div style=""width:240px; margin: auto;"">
                                <img src=""images/map26_seismic_scaleDef_orientMir_090.png"" style= ""width:200px""alt=""img"">
                            </div>
                        </div>",0.4575,"",0,"",NA,"","images/map26_seismic_scaleDef_orientMir_090.png","happy",1,26,26,"seismic","orientMir","scaleDef","090",NA,NA
"","","","","","html-slider-response",131,301161,"0.0-127.0","j6mkwue87m",1,NA,"<div style=""width:500px;"">
                            <p style=""font-size:50px; font-weight:bold;""
                            >happy</p>
                            <div style=""width:240px; margin: auto;"">
                                <img src=""images/map02_plasma_scaleDef_orientDef_270.png"" style= ""width:200px""alt=""img"">
                            </div>
                        </div>",0.57,"",0,"",NA,"","images/map02_plasma_scaleDef_orientDef_270.png","happy",1,2,2,"plasma","orientDef","scaleDef","270",NA,NA
"","","","","","html-slider-response",132,302777,"0.0-128.0","j6mkwue87m",1,NA,"<div style=""width:500px;"">
                            <p style=""font-size:50px; font-weight:bold;""
                            >happy</p>
                            <div style=""width:240px; margin: auto;"">
                                <img src=""images/map05_Greys_scaleRev_orientMir_000.png"" style= ""width:200px""alt=""img"">
                            </div>
                        </div>",0,"",0,"",NA,"","images/map05_Greys_scaleRev_orientMir_000.png","happy",1,5,5,"Greys","orientMir","scaleRev","000",NA,NA
"","","","","","html-slider-response",133,304761,"0.0-129.0","j6mkwue87m",1,NA,"<div style=""width:500px;"">
                            <p style=""font-size:50px; font-weight:bold;""
                            >happy</p>
                            <div style=""width:240px; margin: auto;"">
                                <img src=""images/map12_GnBu_scaleRev_orientMir_000.png"" style= ""width:200px""alt=""img"">
                            </div>
                        </div>",0.365,"",0,"",NA,"","images/map12_GnBu_scaleRev_orientMir_000.png","happy",1,12,12,"GnBu","orientMir","scaleRev","000",NA,NA
"","","","","","html-slider-response",134,306345,"0.0-130.0","j6mkwue87m",1,NA,"<div style=""width:500px;"">
                            <p style=""font-size:50px; font-weight:bold;""
                            >happy</p>
                            <div style=""width:240px; margin: auto;"">
                                <img src=""images/map10_PuRd_scaleDef_orientMir_090.png"" style= ""width:200px""alt=""img"">
                            </div>
                        </div>",1,"",0,"",NA,"","images/map10_PuRd_scaleDef_orientMir_090.png","happy",1,10,10,"PuRd","orientMir","scaleDef","090",NA,NA
"","","","","","html-slider-response",135,308378,"0.0-131.0","j6mkwue87m",1,NA,"<div style=""width:500px;"">
                            <p style=""font-size:50px; font-weight:bold;""
                            >happy</p>
                            <div style=""width:240px; margin: auto;"">
                                <img src=""images/map07_Reds_scaleRev_orientMir_180.png"" style= ""width:200px""alt=""img"">
                            </div>
                        </div>",0.47,"",0,"",NA,"","images/map07_Reds_scaleRev_orientMir_180.png","happy",1,7,7,"Reds","orientMir","scaleRev","180",NA,NA
"","","","","","html-slider-response",136,309963,"0.0-132.0","j6mkwue87m",1,NA,"<div style=""width:500px;"">
                            <p style=""font-size:50px; font-weight:bold;""
                            >happy</p>
                            <div style=""width:240px; margin: auto;"">
                                <img src=""images/map07_Reds_scaleDef_orientMir_090.png"" style= ""width:200px""alt=""img"">
                            </div>
                        </div>",0.4675,"",0,"",NA,"","images/map07_Reds_scaleDef_orientMir_090.png","happy",1,7,7,"Reds","orientMir","scaleDef","090",NA,NA
"","","","","","html-slider-response",137,311628,"0.0-133.0","j6mkwue87m",1,NA,"<div style=""width:500px;"">
                            <p style=""font-size:50px; font-weight:bold;""
                            >happy</p>
                            <div style=""width:240px; margin: auto;"">
                                <img src=""images/map13_PuBuGn_scaleDef_orientDef_090.png"" style= ""width:200px""alt=""img"">
                            </div>
                        </div>",0.4175,"",0,"",NA,"","images/map13_PuBuGn_scaleDef_orientDef_090.png","happy",1,13,13,"PuBuGn","orientDef","scaleDef","090",NA,NA
"","","","","","html-slider-response",138,313478,"0.0-134.0","j6mkwue87m",1,NA,"<div style=""width:500px;"">
                            <p style=""font-size:50px; font-weight:bold;""
                            >happy</p>
                            <div style=""width:240px; margin: auto;"">
                                <img src=""images/map12_PuBu_scaleRev_orientMir_180.png"" style= ""width:200px""alt=""img"">
                            </div>
                        </div>",0.3875,"",0,"",NA,"","images/map12_PuBu_scaleRev_orientMir_180.png","happy",1,12,12,"PuBu","orientMir","scaleRev","180",NA,NA
"","","","","","html-slider-response",139,315661,"0.0-135.0","j6mkwue87m",1,NA,"<div style=""width:500px;"">
                            <p style=""font-size:50px; font-weight:bold;""
                            >happy</p>
                            <div style=""width:240px; margin: auto;"">
                                <img src=""images/map27_gist_earth_scaleRev_orientMir_180.png"" style= ""width:200px""alt=""img"">
                            </div>
                        </div>",0.575,"",0,"",NA,"","images/map27_gist_earth_scaleRev_orientMir_180.png","happy",1,27,27,"gist","scaleRev","earth","orientMir",NA,NA
"","","","","","html-slider-response",140,317928,"0.0-136.0","j6mkwue87m",1,NA,"<div style=""width:500px;"">
                            <p style=""font-size:50px; font-weight:bold;""
                            >happy</p>
                            <div style=""width:240px; margin: auto;"">
                                <img src=""images/map05_cividis_scaleRev_orientDef_180.png"" style= ""width:200px""alt=""img"">
                            </div>
                        </div>",0.44,"",0,"",NA,"","images/map05_cividis_scaleRev_orientDef_180.png","happy",1,5,5,"cividis","orientDef","scaleRev","180",NA,NA
"","","","","","html-button-response",141,319767,"0.0-137.0","j6mkwue87m",1,1336,"<p>You are doing great!<br></br> You are halway done with the current block. When you are ready to continue, click the 'Continue' button.</p>",0.5,"",NA,"",NA,"","","",NA,NA,NA,"","","","",NA,NA
"","","","","","html-slider-response",142,321312,"0.0-138.0","j6mkwue87m",1,NA,"<div style=""width:500px;"">
                            <p style=""font-size:50px; font-weight:bold;""
                            >happy</p>
                            <div style=""width:240px; margin: auto;"">
                                <img src=""images/map02_inferno_scaleRev_orientMir_180.png"" style= ""width:200px""alt=""img"">
                            </div>
                        </div>",0.4125,"",0,"",NA,"","images/map02_inferno_scaleRev_orientMir_180.png","happy",1,2,2,"inferno","orientMir","scaleRev","180",NA,NA
"","","","","","html-slider-response",143,323610,"0.0-139.0","j6mkwue87m",1,NA,"<div style=""width:500px;"">
                            <p style=""font-size:50px; font-weight:bold;""
                            >happy</p>
                            <div style=""width:240px; margin: auto;"">
                                <img src=""images/map12_YlGnBu_scaleDef_orientMir_270.png"" style= ""width:200px""alt=""img"">
                            </div>
                        </div>",0,"",0,"",NA,"","images/map12_YlGnBu_scaleDef_orientMir_270.png","happy",1,12,12,"YlGnBu","orientMir","scaleDef","270",NA,NA
"","","","","","html-slider-response",144,325011,"0.0-140.0","j6mkwue87m",1,NA,"<div style=""width:500px;"">
                            <p style=""font-size:50px; font-weight:bold;""
                            >happy</p>
                            <div style=""width:240px; margin: auto;"">
                                <img src=""images/map12_GnBu_scaleDef_orientDef_270.png"" style= ""width:200px""alt=""img"">
                            </div>
                        </div>",0,"",0,"",NA,"","images/map12_GnBu_scaleDef_orientDef_270.png","happy",1,12,12,"GnBu","orientDef","scaleDef","270",NA,NA
"","","","","","html-slider-response",145,326878,"0.0-141.0","j6mkwue87m",1,NA,"<div style=""width:500px;"">
                            <p style=""font-size:50px; font-weight:bold;""
                            >happy</p>
                            <div style=""width:240px; margin: auto;"">
                                <img src=""images/map15_RdGy_scaleDef_orientMir_270.png"" style= ""width:200px""alt=""img"">
                            </div>
                        </div>",0.43,"",0,"",NA,"","images/map15_RdGy_scaleDef_orientMir_270.png","happy",1,15,15,"RdGy","orientMir","scaleDef","270",NA,NA
"","","","","","html-slider-response",146,328945,"0.0-142.0","j6mkwue87m",1,NA,"<div style=""width:500px;"">
                            <p style=""font-size:50px; font-weight:bold;""
                            >happy</p>
                            <div style=""width:240px; margin: auto;"">
                                <img src=""images/map23_RdBu_scaleRev_orientDef_180.png"" style= ""width:200px""alt=""img"">
                            </div>
                        </div>",0.4075,"",0,"",NA,"","images/map23_RdBu_scaleRev_orientDef_180.png","happy",1,23,23,"RdBu","orientDef","scaleRev","180",NA,NA
"","","","","","html-slider-response",147,330960,"0.0-143.0","j6mkwue87m",1,NA,"<div style=""width:500px;"">
                            <p style=""font-size:50px; font-weight:bold;""
                            >happy</p>
                            <div style=""width:240px; margin: auto;"">
                                <img src=""images/map02_magma_scaleDef_orientMir_270.png"" style= ""width:200px""alt=""img"">
                            </div>
                        </div>",0.43,"",0,"",NA,"","images/map02_magma_scaleDef_orientMir_270.png","happy",1,2,2,"magma","orientMir","scaleDef","270",NA,NA
"","","","","","html-slider-response",148,332527,"0.0-144.0","j6mkwue87m",1,NA,"<div style=""width:500px;"">
                            <p style=""font-size:50px; font-weight:bold;""
                            >happy</p>
                            <div style=""width:240px; margin: auto;"">
                                <img src=""images/map05_magma_scaleRev_orientDef_000.png"" style= ""width:200px""alt=""img"">
                            </div>
                        </div>",0.4425,"",0,"",NA,"","images/map05_magma_scaleRev_orientDef_000.png","happy",1,5,5,"magma","orientDef","scaleRev","000",NA,NA
"","","","","","html-slider-response",149,334227,"0.0-145.0","j6mkwue87m",1,NA,"<div style=""width:500px;"">
                            <p style=""font-size:50px; font-weight:bold;""
                            >happy</p>
                            <div style=""width:240px; margin: auto;"">
                                <img src=""images/map10_OrRd_scaleDef_orientDef_270.png"" style= ""width:200px""alt=""img"">
                            </div>
                        </div>",0.45,"",0,"",NA,"","images/map10_OrRd_scaleDef_orientDef_270.png","happy",1,10,10,"OrRd","orientDef","scaleDef","270",NA,NA
"","","","","","html-slider-response",150,335760,"0.0-146.0","j6mkwue87m",1,NA,"<div style=""width:500px;"">
                            <p style=""font-size:50px; font-weight:bold;""
                            >happy</p>
                            <div style=""width:240px; margin: auto;"">
                                <img src=""images/map26_bwr_scaleRev_orientMir_000.png"" style= ""width:200px""alt=""img"">
                            </div>
                        </div>",0.455,"",0,"",NA,"","images/map26_bwr_scaleRev_orientMir_000.png","happy",1,26,26,"bwr","orientMir","scaleRev","000",NA,NA
"","","","","","html-slider-response",151,337260,"0.0-147.0","j6mkwue87m",1,NA,"<div style=""width:500px;"">
                            <p style=""font-size:50px; font-weight:bold;""
                            >happy</p>
                            <div style=""width:240px; margin: auto;"">
                                <img src=""images/map15_PuOr_scaleRev_orientMir_180.png"" style= ""width:200px""alt=""img"">
                            </div>
                        </div>",0.4425,"",0,"",NA,"","images/map15_PuOr_scaleRev_orientMir_180.png","happy",1,15,15,"PuOr","orientMir","scaleRev","180",NA,NA
"","","","","","html-slider-response",152,338610,"0.0-148.0","j6mkwue87m",1,NA,"<div style=""width:500px;"">
                            <p style=""font-size:50px; font-weight:bold;""
                            >happy</p>
                            <div style=""width:240px; margin: auto;"">
                                <img src=""images/map10_OrRd_scaleRev_orientMir_000.png"" style= ""width:200px""alt=""img"">
                            </div>
                        </div>",0.455,"",0,"",NA,"","images/map10_OrRd_scaleRev_orientMir_000.png","happy",1,10,10,"OrRd","orientMir","scaleRev","000",NA,NA
"","","","","","html-slider-response",153,340029,"0.0-149.0","j6mkwue87m",1,NA,"<div style=""width:500px;"">
                            <p style=""font-size:50px; font-weight:bold;""
                            >happy</p>
                            <div style=""width:240px; margin: auto;"">
                                <img src=""images/map15_PuOr_scaleDef_orientMir_090.png"" style= ""width:200px""alt=""img"">
                            </div>
                        </div>",0.425,"",0,"",NA,"","images/map15_PuOr_scaleDef_orientMir_090.png","happy",1,15,15,"PuOr","orientMir","scaleDef","090",NA,NA
"","","","","","html-slider-response",154,341611,"0.0-150.0","j6mkwue87m",1,NA,"<div style=""width:500px;"">
                            <p style=""font-size:50px; font-weight:bold;""
                            >happy</p>
                            <div style=""width:240px; margin: auto;"">
                                <img src=""images/map05_Blues_scaleDef_orientMir_270.png"" style= ""width:200px""alt=""img"">
                            </div>
                        </div>",0,"",0,"",NA,"","images/map05_Blues_scaleDef_orientMir_270.png","happy",1,5,5,"Blues","orientMir","scaleDef","270",NA,NA
"","","","","","html-slider-response",155,343376,"0.0-151.0","j6mkwue87m",1,NA,"<div style=""width:500px;"">
                            <p style=""font-size:50px; font-weight:bold;""
                            >happy</p>
                            <div style=""width:240px; margin: auto;"">
                                <img src=""images/map13_PuBuGn_scaleRev_orientDef_180.png"" style= ""width:200px""alt=""img"">
                            </div>
                        </div>",0,"",0,"",NA,"","images/map13_PuBuGn_scaleRev_orientDef_180.png","happy",1,13,13,"PuBuGn","orientDef","scaleRev","180",NA,NA
"","","","","","html-slider-response",156,346077,"0.0-152.0","j6mkwue87m",1,NA,"<div style=""width:500px;"">
                            <p style=""font-size:50px; font-weight:bold;""
                            >happy</p>
                            <div style=""width:240px; margin: auto;"">
                                <img src=""images/map10_YlOrRd_scaleDef_orientDef_090.png"" style= ""width:200px""alt=""img"">
                            </div>
                        </div>",0.445,"",0,"",NA,"","images/map10_YlOrRd_scaleDef_orientDef_090.png","happy",1,10,10,"YlOrRd","orientDef","scaleDef","090",NA,NA
"","","","","","html-slider-response",157,347927,"0.0-153.0","j6mkwue87m",1,NA,"<div style=""width:500px;"">
                            <p style=""font-size:50px; font-weight:bold;""
                            >happy</p>
                            <div style=""width:240px; margin: auto;"">
                                <img src=""images/map07_Oranges_scaleDef_orientDef_270.png"" style= ""width:200px""alt=""img"">
                            </div>
                        </div>",0.41,"",0,"",NA,"","images/map07_Oranges_scaleDef_orientDef_270.png","happy",1,7,7,"Oranges","orientDef","scaleDef","270",NA,NA
"","","","","","html-slider-response",158,349709,"0.0-154.0","j6mkwue87m",1,NA,"<div style=""width:500px;"">
                            <p style=""font-size:50px; font-weight:bold;""
                            >happy</p>
                            <div style=""width:240px; margin: auto;"">
                                <img src=""images/map26_seismic_scaleRev_orientMir_180.png"" style= ""width:200px""alt=""img"">
                            </div>
                        </div>",0.5725,"",0,"",NA,"","images/map26_seismic_scaleRev_orientMir_180.png","happy",1,26,26,"seismic","orientMir","scaleRev","180",NA,NA
"","","","","","html-slider-response",159,351127,"0.0-155.0","j6mkwue87m",1,NA,"<div style=""width:500px;"">
                            <p style=""font-size:50px; font-weight:bold;""
                            >happy</p>
                            <div style=""width:240px; margin: auto;"">
                                <img src=""images/map10_PuRd_scaleRev_orientMir_180.png"" style= ""width:200px""alt=""img"">
                            </div>
                        </div>",1,"",0,"",NA,"","images/map10_PuRd_scaleRev_orientMir_180.png","happy",1,10,10,"PuRd","orientMir","scaleRev","180",NA,NA
"","","","","","html-slider-response",160,352777,"0.0-156.0","j6mkwue87m",1,NA,"<div style=""width:500px;"">
                            <p style=""font-size:50px; font-weight:bold;""
                            >happy</p>
                            <div style=""width:240px; margin: auto;"">
                                <img src=""images/map15_PRGn_scaleDef_orientDef_090.png"" style= ""width:200px""alt=""img"">
                            </div>
                        </div>",0.4275,"",0,"",NA,"","images/map15_PRGn_scaleDef_orientDef_090.png","happy",1,15,15,"PRGn","orientDef","scaleDef","090",NA,NA
"","","","","","html-slider-response",161,354226,"0.0-157.0","j6mkwue87m",1,NA,"<div style=""width:500px;"">
                            <p style=""font-size:50px; font-weight:bold;""
                            >happy</p>
                            <div style=""width:240px; margin: auto;"">
                                <img src=""images/map23_RdYlGn_scaleDef_orientMir_090.png"" style= ""width:200px""alt=""img"">
                            </div>
                        </div>",0.4125,"",0,"",NA,"","images/map23_RdYlGn_scaleDef_orientMir_090.png","happy",1,23,23,"RdYlGn","orientMir","scaleDef","090",NA,NA
"","","","","","html-slider-response",162,355826,"0.0-158.0","j6mkwue87m",1,NA,"<div style=""width:500px;"">
                            <p style=""font-size:50px; font-weight:bold;""
                            >happy</p>
                            <div style=""width:240px; margin: auto;"">
                                <img src=""images/map12_BuPu_scaleRev_orientDef_180.png"" style= ""width:200px""alt=""img"">
                            </div>
                        </div>",0.545,"",0,"",NA,"","images/map12_BuPu_scaleRev_orientDef_180.png","happy",1,12,12,"BuPu","orientDef","scaleRev","180",NA,NA
"","","","","","html-slider-response",163,357275,"0.0-159.0","j6mkwue87m",1,NA,"<div style=""width:500px;"">
                            <p style=""font-size:50px; font-weight:bold;""
                            >happy</p>
                            <div style=""width:240px; margin: auto;"">
                                <img src=""images/map15_PRGn_scaleRev_orientDef_180.png"" style= ""width:200px""alt=""img"">
                            </div>
