"success","timeout","failed_images","failed_audio","failed_video","trial_type","trial_index","time_elapsed","internal_node_id","subject_id","condition_num","rt","stimulus","response","question_order","slider_start","practiceTrial","practiceTrialNum","correct","image_path","concept","repetition","map_id","map_num","scale_name","orientation_code","mapping_code","rotation_code","ishihara_plate","correct_response"
"true","false","[]","[]","[]","preload",0,824,"0.0-0.0","qe77kgf7f9",14,NA,"",NA,"",NA,"",NA,"","","",NA,NA,NA,"","","","",NA,NA
"","","","","","html-button-response",1,2722,"0.0-1.0","qe77kgf7f9",14,1893,"Welcome to our experiment!<p>At the bottom of this screen, you will see a button that says ""Begin Experiment"".<br>Please only click that button when you are ready to complete the 30 minute experiment in one sitting.</p><p> Once you click that button, it will not be possible to restart the experiment.",0.5,"",NA,"",NA,"","","",NA,NA,NA,"","","","",NA,NA
"true","","","","","fullscreen",2,4927,"0.0-2.0","qe77kgf7f9",14,1187,"",NA,"",NA,"",NA,"","","",NA,NA,NA,"","","","",NA,NA
"","","","","","survey-multi-select",3,8753,"0.0-3.0","qe77kgf7f9",14,3823,"",NA,"[0]",NA,"",NA,"","","",NA,NA,NA,"","","","",NA,NA
"","","","","","html-button-response",4,10752,"0.0-4.0","qe77kgf7f9",14,1998,"Welcome! <p> This experiment involves two parts: demographic information, followed by the experimental task.<p> It will take about 30 minutes to complete both parts.",0.5,"",NA,"",NA,"","","",NA,NA,NA,"","","","",NA,NA
"","","","","","survey-text",5,25288,"0.0-5.0","qe77kgf7f9",14,14532,"",NA,"",NA,"",NA,"","","",NA,NA,NA,"","","","",NA,NA
"","","","","","html-slider-response",6,45577,"0.0-6.0","qe77kgf7f9",14,20281,"<div style='text-align:left; font-size:20px; line-height:25px; width: 1000px;'>
                                During this experiment you will be asked to rate how much you associate maps with                    different concepts.<br> Below, you can see some examples of the maps you will be asked to rate. Above the maps
                    is the list of concepts.<br>You will be asked                    to rate how much you associate each map with each concept on a scale from 'not at all' to 'very much' like the
                    one below. <br><br>
                    Now, please look at the list of concepts and maps. For each concept, think about the map you associate 'very
                    much' with the concept.<br>                     When you see that map during the experiment, please rate it near the 'very much' endpoint of the
                    scale.<br>Now, please think about which map you associate 'not at all'                     with each concept. When you see that map during the experiment, please rate it near the 'not at all' endpoint
                    of the scale.<br>
                    Please use the full range of the scale. That is, if a map is somewhat associated with the concept, you would
                    click partway between the middle point and right side of the scale.                    You will be asked to rate each map for a given concept before moving on to the next concept.<br>Press the
                    'Continue' button for instructions on how to use the slider.                    <br>
                </div>

                <div style=""width: 500px; margin: 0 auto;"">
                    <!-- Centered text paragraphs -->
                    <div style=""text-align: center; width: 500px;"">
                        <p style=""font-size:25px; line-height:15px;"">
                            sad&nbsp;&nbsp;&nbsp;&nbsp;
                            happy&nbsp;&nbsp;&nbsp;&nbsp;
                            disgust&nbsp;&nbsp;&nbsp;&nbsp;
                            angry&nbsp;&nbsp;&nbsp;&nbsp;
                            fearful
                        </p>
                        <!-- <p style=""font-size:20px; line-height:15px;"">happy</p>
                        <p style=""font-size:20px;line-height:15px;"">disgust</p>
                        <p style=""font-size:20px;line-height:15px;"">angry</p>
                        <p style=""font-size:20px;line-height:15px;"">fearful</p> -->
                    </div>
            

                    <!-- Grid section -->
                   <div style=""display: flex; justify-content: center; padding-top: 15px;"">
                    <div style=""display: grid; grid-template-columns: repeat(10, 55px); grid-gap: 5px; width: auto;"">
                        <img src=""images/map27_RdYlBu_scaleRev_orientDef_090.png"" alt=""map"" style=""width: 100%;""><img src=""images/map02_managua_scaleDef_orientMir_180.png"" alt=""map"" style=""width: 100%;""><img src=""images/map05_gist_earth_scaleRev_orientDef_270.png"" alt=""map"" style=""width: 100%;""><img src=""images/map12_YlOrBr_scaleRev_orientMir_090.png"" alt=""map"" style=""width: 100%;""><img src=""images/map13_OrRd_scaleDef_orientDef_000.png"" alt=""map"" style=""width: 100%;""><img src=""images/map13_BuPu_scaleDef_orientMir_180.png"" alt=""map"" style=""width: 100%;""><img src=""images/map10_Blues_scaleRev_orientMir_090.png"" alt=""map"" style=""width: 100%;""><img src=""images/map10_Greens_scaleDef_orientMir_180.png"" alt=""map"" style=""width: 100%;""><img src=""images/map27_coolwarm_scaleRev_orientMir_270.png"" alt=""map"" style=""width: 100%;""><img src=""images/map13_PuRd_scaleRev_orientDef_270.png"" alt=""map"" style=""width: 100%;""><img src=""images/map15_PuBuGn_scaleRev_orientMir_270.png"" alt=""map"" style=""width: 100%;""><img src=""images/map13_RdPu_scaleRev_orientMir_090.png"" alt=""map"" style=""width: 100%;""><img src=""images/map23_PiYG_scaleRev_orientMir_090.png"" alt=""map"" style=""width: 100%;""><img src=""images/map23_YlGn_scaleRev_orientDef_270.png"" alt=""map"" style=""width: 100%;""><img src=""images/map27_RdYlGn_scaleRev_orientDef_270.png"" alt=""map"" style=""width: 100%;""><img src=""images/map05_viridis_scaleDef_orientMir_180.png"" alt=""map"" style=""width: 100%;""><img src=""images/map26_RdGy_scaleRev_orientMir_090.png"" alt=""map"" style=""width: 100%;""><img src=""images/map07_cividis_scaleDef_orientMir_180.png"" alt=""map"" style=""width: 100%;""><img src=""images/map23_BuGn_scaleDef_orientDef_000.png"" alt=""map"" style=""width: 100%;""><img src=""images/map07_magma_scaleRev_orientMir_090.png"" alt=""map"" style=""width: 100%;""><img src=""images/map12_Oranges_scaleRev_orientDef_090.png"" alt=""map"" style=""width: 100%;""><img src=""images/map23_PRGn_scaleDef_orientMir_180.png"" alt=""map"" style=""width: 100%;""><img src=""images/map15_PuBu_scaleDef_orientDef_180.png"" alt=""map"" style=""width: 100%;""><img src=""images/map15_YlGnBu_scaleDef_orientMir_000.png"" alt=""map"" style=""width: 100%;""><img src=""images/map05_vanimo_scaleDef_orientDef_000.png"" alt=""map"" style=""width: 100%;""><img src=""images/map27_Spectral_scaleRev_orientMir_090.png"" alt=""map"" style=""width: 100%;""><img src=""images/map05_turbo_scaleDef_orientMir_000.png"" alt=""map"" style=""width: 100%;""><img src=""images/map12_YlOrRd_scaleRev_orientMir_270.png"" alt=""map"" style=""width: 100%;""><img src=""images/map26_PuOr_scaleRev_orientDef_270.png"" alt=""map"" style=""width: 100%;""><img src=""images/map15_GnBu_scaleDef_orientDef_000.png"" alt=""map"" style=""width: 100%;""><img src=""images/map02_seismic_scaleDef_orientDef_180.png"" alt=""map"" style=""width: 100%;""><img src=""images/map26_BrBG_scaleDef_orientDef_000.png"" alt=""map"" style=""width: 100%;""><img src=""images/map02_bwr_scaleRev_orientDef_090.png"" alt=""map"" style=""width: 100%;""><img src=""images/map07_plasma_scaleRev_orientDef_090.png"" alt=""map"" style=""width: 100%;""><img src=""images/map10_Purples_scaleRev_orientDef_270.png"" alt=""map"" style=""width: 100%;""><img src=""images/map26_RdBu_scaleRev_orientMir_270.png"" alt=""map"" style=""width: 100%;""><img src=""images/map10_Greys_scaleRev_orientDef_090.png"" alt=""map"" style=""width: 100%;""><img src=""images/map02_berlin_scaleDef_orientMir_000.png"" alt=""map"" style=""width: 100%;""><img src=""images/map07_inferno_scaleDef_orientDef_180.png"" alt=""map"" style=""width: 100%;""><img src=""images/map12_Reds_scaleRev_orientDef_270.png"" alt=""map"" style=""width: 100%;"">
                    </div>
                </div>

                    <!-- Clear floats -->
                    <div style=""clear: both;""></div>
                </div>
                            ",0.495,"",0,"true",NA,"","","",NA,NA,NA,"","","","",NA,NA
"","","","","","html-button-response",7,55184,"0.0-7.0","qe77kgf7f9",14,9605,"<div style=""width:800px;""><p style=""text-align:left"">To move the slider, click and drag your cursor to the location of the scale where you would like to make your rating and then let go. When you let go of the slider, your response will be recorded and the next trial will begin. <br>
                    We are interested in your initial impressions of each map for the given concept, so please go with your first intuition. <br>
                    Before you begin the experiment, there will be four training trials for you to practice using the scale. <br>
                     When you are ready to start the training trials, please click ""Continue"".</p><br></div>",0.5,"",NA,"",NA,"","","",NA,NA,NA,"","","","",NA,NA
"","","","","","html-slider-response",8,57982,"0.0-8.0-0.0","qe77kgf7f9",14,NA,"<div style=""width:500px;"">
                                    <p style=""font-size:25px;"">Please move the slider all the way to the <br> right endpoint of the scale</p>

                                    </div>
                                </div>",1,"",0,"true",0,"true","","",NA,NA,NA,"","","","",NA,NA
"","","","","","html-button-response",9,59665,"0.0-8.0-1.0","qe77kgf7f9",14,1168,"<p align='center'><b>Good job!</b> Click on 'Continue' to proceed.</p>",0.5,"",NA,"",NA,"","","",NA,NA,NA,"","","","",NA,NA
"","","","","","html-slider-response",10,61307,"0.0-9.0-0.0","qe77kgf7f9",14,NA,"<div style=""width:500px;"">
                                    <p style=""font-size:25px;"">Please move the slider all the way to the <br> left endpoint of the scale</p>

                                    </div>
                                </div>",0,"",0,"true",1,"true","","",NA,NA,NA,"","","","",NA,NA
"","","","","","html-button-response",11,62960,"0.0-9.0-1.0","qe77kgf7f9",14,1149,"<p align='center'><b>Good job!</b> Click on 'Continue' to proceed.</p>",0.5,"",NA,"",NA,"","","",NA,NA,NA,"","","","",NA,NA
"","","","","","html-slider-response",12,66984,"0.0-10.0-0.0","qe77kgf7f9",14,NA,"<div style=""width:500px;"">
                                    <p style=""font-size:25px;"">Please move the slider halfway between the center and right endpoint of the scale</p>

                                    </div>
                                </div>",0.7525,"",0,"true",2,"true","","",NA,NA,NA,"","","","",NA,NA
"","","","","","html-button-response",13,68505,"0.0-10.0-1.0","qe77kgf7f9",14,1019,"<p align='center'><b>Good job!</b> Click on 'Continue' to proceed.</p>",0.5,"",NA,"",NA,"","","",NA,NA,NA,"","","","",NA,NA
"","","","","","html-slider-response",14,71215,"0.0-11.0-0.0","qe77kgf7f9",14,NA,"<div style=""width:500px;"">
                                    <p style=""font-size:25px;"">Please move the slider halfway between the center and left endpoint of the scale</p>

                                    </div>
                                </div>",0.2325,"",0,"true",3,"true","","",NA,NA,NA,"","","","",NA,NA
"","","","","","html-button-response",15,72633,"0.0-11.0-1.0","qe77kgf7f9",14,914,"<p align='center'><b>Good job!</b> Click on 'Continue' to proceed.</p>",0.5,"",NA,"",NA,"","","",NA,NA,NA,"","","","",NA,NA
"","","","","","html-button-response",16,74194,"0.0-12.0","qe77kgf7f9",14,1559,"<p>Great job! You've completed the practice trials. Now you will begin the main task.</p>",0.5,"",NA,"",NA,"","","",NA,NA,NA,"","","","",NA,NA
"","","","","","html-button-response",17,76689,"0.0-13.0","qe77kgf7f9",14,2494,"<p>In this block of trials, you will be asked to rate how much you associate each map with:</p > <p style = 'font-size:150%; font-weight: bold'>sad</p><br></br>",0.5,"",NA,"",NA,"","","",NA,NA,NA,"","","","",NA,NA
"","","","","","html-slider-response",18,80021,"0.0-14.0","qe77kgf7f9",14,NA,"<div style=""width:500px;"">
                            <p style=""font-size:50px; font-weight:bold;""
                            >sad</p>
                            <div style=""width:240px; margin: auto;"">
                                <img src=""images/map02_managua_scaleDef_orientMir_180.png"" style= ""width:200px""alt=""img"">
                            </div>
                        </div>",0.595,"",0,"",NA,"","images/map02_managua_scaleDef_orientMir_180.png","sad",1,2,2,"managua","orientMir","scaleDef","180",NA,NA
"","","","","","html-slider-response",19,82848,"0.0-15.0","qe77kgf7f9",14,NA,"<div style=""width:500px;"">
                            <p style=""font-size:50px; font-weight:bold;""
                            >sad</p>
                            <div style=""width:240px; margin: auto;"">
                                <img src=""images/map26_RdGy_scaleRev_orientMir_090.png"" style= ""width:200px""alt=""img"">
                            </div>
                        </div>",0.3925,"",0,"",NA,"","images/map26_RdGy_scaleRev_orientMir_090.png","sad",1,26,26,"RdGy","orientMir","scaleRev","090",NA,NA
"","","","","","html-slider-response",20,85055,"0.0-16.0","qe77kgf7f9",14,NA,"<div style=""width:500px;"">
                            <p style=""font-size:50px; font-weight:bold;""
                            >sad</p>
                            <div style=""width:240px; margin: auto;"">
                                <img src=""images/map26_RdBu_scaleDef_orientMir_180.png"" style= ""width:200px""alt=""img"">
                            </div>
                        </div>",0.6725,"",0,"",NA,"","images/map26_RdBu_scaleDef_orientMir_180.png","sad",1,26,26,"RdBu","orientMir","scaleDef","180",NA,NA
"","","","","","html-slider-response",21,87215,"0.0-17.0","qe77kgf7f9",14,NA,"<div style=""width:500px;"">
                            <p style=""font-size:50px; font-weight:bold;""
                            >sad</p>
                            <div style=""width:240px; margin: auto;"">
                                <img src=""images/map07_plasma_scaleRev_orientDef_090.png"" style= ""width:200px""alt=""img"">
                            </div>
                        </div>",0.63,"",0,"",NA,"","images/map07_plasma_scaleRev_orientDef_090.png","sad",1,7,7,"plasma","orientDef","scaleRev","090",NA,NA
"","","","","","html-slider-response",22,89131,"0.0-18.0","qe77kgf7f9",14,NA,"<div style=""width:500px;"">
                            <p style=""font-size:50px; font-weight:bold;""
                            >sad</p>
                            <div style=""width:240px; margin: auto;"">
                                <img src=""images/map05_viridis_scaleRev_orientMir_270.png"" style= ""width:200px""alt=""img"">
                            </div>
                        </div>",0.805,"",0,"",NA,"","images/map05_viridis_scaleRev_orientMir_270.png","sad",1,5,5,"viridis","orientMir","scaleRev","270",NA,NA
"","","","","","html-slider-response",23,91030,"0.0-19.0","qe77kgf7f9",14,NA,"<div style=""width:500px;"">
                            <p style=""font-size:50px; font-weight:bold;""
                            >sad</p>
                            <div style=""width:240px; margin: auto;"">
                                <img src=""images/map02_berlin_scaleDef_orientMir_000.png"" style= ""width:200px""alt=""img"">
                            </div>
                        </div>",0.755,"",0,"",NA,"","images/map02_berlin_scaleDef_orientMir_000.png","sad",1,2,2,"berlin","orientMir","scaleDef","000",NA,NA
"","","","","","html-slider-response",24,92764,"0.0-20.0","qe77kgf7f9",14,NA,"<div style=""width:500px;"">
                            <p style=""font-size:50px; font-weight:bold;""
                            >sad</p>
                            <div style=""width:240px; margin: auto;"">
                                <img src=""images/map12_Oranges_scaleRev_orientDef_090.png"" style= ""width:200px""alt=""img"">
                            </div>
                        </div>",0.3025,"",0,"",NA,"","images/map12_Oranges_scaleRev_orientDef_090.png","sad",1,12,12,"Oranges","orientDef","scaleRev","090",NA,NA
"","","","","","html-slider-response",25,95039,"0.0-21.0","qe77kgf7f9",14,NA,"<div style=""width:500px;"">
                            <p style=""font-size:50px; font-weight:bold;""
                            >sad</p>
                            <div style=""width:240px; margin: auto;"">
                                <img src=""images/map10_Greys_scaleRev_orientDef_090.png"" style= ""width:200px""alt=""img"">
                            </div>
                        </div>",0.935,"",0,"",NA,"","images/map10_Greys_scaleRev_orientDef_090.png","sad",1,10,10,"Greys","orientDef","scaleRev","090",NA,NA
"","","","","","html-slider-response",26,97657,"0.0-22.0","qe77kgf7f9",14,NA,"<div style=""width:500px;"">
                            <p style=""font-size:50px; font-weight:bold;""
                            >sad</p>
                            <div style=""width:240px; margin: auto;"">
                                <img src=""images/map26_BrBG_scaleRev_orientDef_090.png"" style= ""width:200px""alt=""img"">
                            </div>
                        </div>",0.43,"",0,"",NA,"","images/map26_BrBG_scaleRev_orientDef_090.png","sad",1,26,26,"BrBG","orientDef","scaleRev","090",NA,NA
"","","","","","html-slider-response",27,99648,"0.0-23.0","qe77kgf7f9",14,NA,"<div style=""width:500px;"">
                            <p style=""font-size:50px; font-weight:bold;""
                            >sad</p>
                            <div style=""width:240px; margin: auto;"">
                                <img src=""images/map07_inferno_scaleRev_orientDef_270.png"" style= ""width:200px""alt=""img"">
                            </div>
                        </div>",0.4175,"",0,"",NA,"","images/map07_inferno_scaleRev_orientDef_270.png","sad",1,7,7,"inferno","orientDef","scaleRev","270",NA,NA
"","","","","","html-slider-response",28,101573,"0.0-24.0","qe77kgf7f9",14,NA,"<div style=""width:500px;"">
                            <p style=""font-size:50px; font-weight:bold;""
                            >sad</p>
                            <div style=""width:240px; margin: auto;"">
                                <img src=""images/map05_gist_earth_scaleDef_orientDef_180.png"" style= ""width:200px""alt=""img"">
                            </div>
                        </div>",0.535,"",0,"",NA,"","images/map05_gist_earth_scaleDef_orientDef_180.png","sad",1,5,5,"gist","scaleDef","earth","orientDef",NA,NA
"","","","","","html-slider-response",29,103347,"0.0-25.0","qe77kgf7f9",14,NA,"<div style=""width:500px;"">
                            <p style=""font-size:50px; font-weight:bold;""
                            >sad</p>
                            <div style=""width:240px; margin: auto;"">
                                <img src=""images/map27_RdYlBu_scaleDef_orientDef_000.png"" style= ""width:200px""alt=""img"">
                            </div>
                        </div>",0.6325,"",0,"",NA,"","images/map27_RdYlBu_scaleDef_orientDef_000.png","sad",1,27,27,"RdYlBu","orientDef","scaleDef","000",NA,NA
"","","","","","html-slider-response",30,105415,"0.0-26.0","qe77kgf7f9",14,NA,"<div style=""width:500px;"">
                            <p style=""font-size:50px; font-weight:bold;""
                            >sad</p>
                            <div style=""width:240px; margin: auto;"">
                                <img src=""images/map23_BuGn_scaleDef_orientDef_000.png"" style= ""width:200px""alt=""img"">
                            </div>
                        </div>",0.5525,"",0,"",NA,"","images/map23_BuGn_scaleDef_orientDef_000.png","sad",1,23,23,"BuGn","orientDef","scaleDef","000",NA,NA
"","","","","","html-slider-response",31,107256,"0.0-27.0","qe77kgf7f9",14,NA,"<div style=""width:500px;"">
                            <p style=""font-size:50px; font-weight:bold;""
                            >sad</p>
                            <div style=""width:240px; margin: auto;"">
                                <img src=""images/map10_Purples_scaleDef_orientDef_180.png"" style= ""width:200px""alt=""img"">
                            </div>
                        </div>",0.4275,"",0,"",NA,"","images/map10_Purples_scaleDef_orientDef_180.png","sad",1,10,10,"Purples","orientDef","scaleDef","180",NA,NA
"","","","","","html-slider-response",32,109055,"0.0-28.0","qe77kgf7f9",14,NA,"<div style=""width:500px;"">
                            <p style=""font-size:50px; font-weight:bold;""
                            >sad</p>
                            <div style=""width:240px; margin: auto;"">
                                <img src=""images/map23_PRGn_scaleDef_orientMir_180.png"" style= ""width:200px""alt=""img"">
                            </div>
                        </div>",0.2925,"",0,"",NA,"","images/map23_PRGn_scaleDef_orientMir_180.png","sad",1,23,23,"PRGn","orientMir","scaleDef","180",NA,NA
"","","","","","html-slider-response",33,111206,"0.0-29.0","qe77kgf7f9",14,NA,"<div style=""width:500px;"">
                            <p style=""font-size:50px; font-weight:bold;""
                            >sad</p>
                            <div style=""width:240px; margin: auto;"">
                                <img src=""images/map10_Blues_scaleDef_orientMir_000.png"" style= ""width:200px""alt=""img"">
                            </div>
                        </div>",0.8625,"",0,"",NA,"","images/map10_Blues_scaleDef_orientMir_000.png","sad",1,10,10,"Blues","orientMir","scaleDef","000",NA,NA
"","","","","","html-slider-response",34,112888,"0.0-30.0","qe77kgf7f9",14,NA,"<div style=""width:500px;"">
                            <p style=""font-size:50px; font-weight:bold;""
                            >sad</p>
                            <div style=""width:240px; margin: auto;"">
                                <img src=""images/map02_berlin_scaleRev_orientMir_090.png"" style= ""width:200px""alt=""img"">
                            </div>
                        </div>",0.66,"",0,"",NA,"","images/map02_berlin_scaleRev_orientMir_090.png","sad",1,2,2,"berlin","orientMir","scaleRev","090",NA,NA
"","","","","","html-slider-response",35,118523,"0.0-31.0","qe77kgf7f9",14,NA,"<div style=""width:500px;"">
                            <p style=""font-size:50px; font-weight:bold;""
                            >sad</p>
                            <div style=""width:240px; margin: auto;"">
                                <img src=""images/map10_Greens_scaleDef_orientMir_180.png"" style= ""width:200px""alt=""img"">
                            </div>
                        </div>",0.29,"",0,"",NA,"","images/map10_Greens_scaleDef_orientMir_180.png","sad",1,10,10,"Greens","orientMir","scaleDef","180",NA,NA
"","","","","","html-slider-response",36,124481,"0.0-32.0","qe77kgf7f9",14,NA,"<div style=""width:500px;"">
                            <p style=""font-size:50px; font-weight:bold;""
                            >sad</p>
                            <div style=""width:240px; margin: auto;"">
                                <img src=""images/map13_PuRd_scaleRev_orientDef_270.png"" style= ""width:200px""alt=""img"">
                            </div>
                        </div>",0.355,"",0,"",NA,"","images/map13_PuRd_scaleRev_orientDef_270.png","sad",1,13,13,"PuRd","orientDef","scaleRev","270",NA,NA
"","","","","","html-slider-response",37,128182,"0.0-33.0","qe77kgf7f9",14,NA,"<div style=""width:500px;"">
                            <p style=""font-size:50px; font-weight:bold;""
                            >sad</p>
                            <div style=""width:240px; margin: auto;"">
                                <img src=""images/map15_PuBu_scaleDef_orientDef_180.png"" style= ""width:200px""alt=""img"">
                            </div>
                        </div>",0.9,"",0,"",NA,"","images/map15_PuBu_scaleDef_orientDef_180.png","sad",1,15,15,"PuBu","orientDef","scaleDef","180",NA,NA
"","","","","","html-slider-response",38,130364,"0.0-34.0","qe77kgf7f9",14,NA,"<div style=""width:500px;"">
                            <p style=""font-size:50px; font-weight:bold;""
                            >sad</p>
                            <div style=""width:240px; margin: auto;"">
                                <img src=""images/map15_YlGnBu_scaleRev_orientMir_090.png"" style= ""width:200px""alt=""img"">
                            </div>
                        </div>",0.805,"",0,"",NA,"","images/map15_YlGnBu_scaleRev_orientMir_090.png","sad",1,15,15,"YlGnBu","orientMir","scaleRev","090",NA,NA
"","","","","","html-slider-response",39,131518,"0.0-35.0","qe77kgf7f9",14,NA,"<div style=""width:500px;"">
                            <p style=""font-size:50px; font-weight:bold;""
                            >sad</p>
                            <div style=""width:240px; margin: auto;"">
                                <img src=""images/map02_managua_scaleRev_orientMir_270.png"" style= ""width:200px""alt=""img"">
                            </div>
                        </div>",0.655,"",0,"",NA,"","images/map02_managua_scaleRev_orientMir_270.png","sad",1,2,2,"managua","orientMir","scaleRev","270",NA,NA
"","","","","","html-slider-response",40,133498,"0.0-36.0","qe77kgf7f9",14,NA,"<div style=""width:500px;"">
                            <p style=""font-size:50px; font-weight:bold;""
                            >sad</p>
                            <div style=""width:240px; margin: auto;"">
                                <img src=""images/map02_bwr_scaleDef_orientDef_000.png"" style= ""width:200px""alt=""img"">
                            </div>
                        </div>",0.61,"",0,"",NA,"","images/map02_bwr_scaleDef_orientDef_000.png","sad",1,2,2,"bwr","orientDef","scaleDef","000",NA,NA
"","","","","","html-slider-response",41,135418,"0.0-37.0","qe77kgf7f9",14,NA,"<div style=""width:500px;"">
                            <p style=""font-size:50px; font-weight:bold;""
                            >sad</p>
                            <div style=""width:240px; margin: auto;"">
                                <img src=""images/map26_PuOr_scaleRev_orientDef_270.png"" style= ""width:200px""alt=""img"">
                            </div>
                        </div>",0.34,"",0,"",NA,"","images/map26_PuOr_scaleRev_orientDef_270.png","sad",1,26,26,"PuOr","orientDef","scaleRev","270",NA,NA
"","","","","","html-slider-response",42,137048,"0.0-38.0","qe77kgf7f9",14,NA,"<div style=""width:500px;"">
                            <p style=""font-size:50px; font-weight:bold;""
                            >sad</p>
                            <div style=""width:240px; margin: auto;"">
                                <img src=""images/map02_seismic_scaleDef_orientDef_180.png"" style= ""width:200px""alt=""img"">
                            </div>
                        </div>",0.625,"",0,"",NA,"","images/map02_seismic_scaleDef_orientDef_180.png","sad",1,2,2,"seismic","orientDef","scaleDef","180",NA,NA
"","","","","","html-slider-response",43,138761,"0.0-39.0","qe77kgf7f9",14,NA,"<div style=""width:500px;"">
                            <p style=""font-size:50px; font-weight:bold;""
                            >sad</p>
                            <div style=""width:240px; margin: auto;"">
                                <img src=""images/map07_magma_scaleDef_orientMir_000.png"" style= ""width:200px""alt=""img"">
                            </div>
                        </div>",0.2425,"",0,"",NA,"","images/map07_magma_scaleDef_orientMir_000.png","sad",1,7,7,"magma","orientMir","scaleDef","000",NA,NA
"","","","","","html-slider-response",44,140063,"0.0-40.0","qe77kgf7f9",14,NA,"<div style=""width:500px;"">
                            <p style=""font-size:50px; font-weight:bold;""
                            >sad</p>
                            <div style=""width:240px; margin: auto;"">
                                <img src=""images/map13_BuPu_scaleDef_orientMir_180.png"" style= ""width:200px""alt=""img"">
                            </div>
                        </div>",0.2275,"",0,"",NA,"","images/map13_BuPu_scaleDef_orientMir_180.png","sad",1,13,13,"BuPu","orientMir","scaleDef","180",NA,NA
"","","","","","html-slider-response",45,141296,"0.0-41.0","qe77kgf7f9",14,NA,"<div style=""width:500px;"">
                            <p style=""font-size:50px; font-weight:bold;""
                            >sad</p>
                            <div style=""width:240px; margin: auto;"">
                                <img src=""images/map07_cividis_scaleDef_orientMir_180.png"" style= ""width:200px""alt=""img"">
                            </div>
                        </div>",0.2275,"",0,"",NA,"","images/map07_cividis_scaleDef_orientMir_180.png","sad",1,7,7,"cividis","orientMir","scaleDef","180",NA,NA
"","","","","","html-slider-response",46,142369,"0.0-42.0","qe77kgf7f9",14,NA,"<div style=""width:500px;"">
                            <p style=""font-size:50px; font-weight:bold;""
                            >sad</p>
                            <div style=""width:240px; margin: auto;"">
                                <img src=""images/map02_seismic_scaleRev_orientDef_270.png"" style= ""width:200px""alt=""img"">
                            </div>
                        </div>",0.2275,"",0,"",NA,"","images/map02_seismic_scaleRev_orientDef_270.png","sad",1,2,2,"seismic","orientDef","scaleRev","270",NA,NA
"","","","","","html-slider-response",47,144078,"0.0-43.0","qe77kgf7f9",14,NA,"<div style=""width:500px;"">
                            <p style=""font-size:50px; font-weight:bold;""
                            >sad</p>
                            <div style=""width:240px; margin: auto;"">
                                <img src=""images/map02_bwr_scaleRev_orientDef_090.png"" style= ""width:200px""alt=""img"">
                            </div>
                        </div>",0.59,"",0,"",NA,"","images/map02_bwr_scaleRev_orientDef_090.png","sad",1,2,2,"bwr","orientDef","scaleRev","090",NA,NA
"","","","","","html-slider-response",48,146214,"0.0-44.0","qe77kgf7f9",14,NA,"<div style=""width:500px;"">
                            <p style=""font-size:50px; font-weight:bold;""
                            >sad</p>
                            <div style=""width:240px; margin: auto;"">
                                <img src=""images/map12_Reds_scaleRev_orientDef_270.png"" style= ""width:200px""alt=""img"">
                            </div>
                        </div>",0.2025,"",0,"",NA,"","images/map12_Reds_scaleRev_orientDef_270.png","sad",1,12,12,"Reds","orientDef","scaleRev","270",NA,NA
"","","","","","html-slider-response",49,147417,"0.0-45.0","qe77kgf7f9",14,NA,"<div style=""width:500px;"">
                            <p style=""font-size:50px; font-weight:bold;""
                            >sad</p>
                            <div style=""width:240px; margin: auto;"">
                                <img src=""images/map12_Oranges_scaleDef_orientDef_000.png"" style= ""width:200px""alt=""img"">
                            </div>
                        </div>",0.2025,"",0,"",NA,"","images/map12_Oranges_scaleDef_orientDef_000.png","sad",1,12,12,"Oranges","orientDef","scaleDef","000",NA,NA
"","","","","","html-slider-response",50,149919,"0.0-46.0","qe77kgf7f9",14,NA,"<div style=""width:500px;"">
                            <p style=""font-size:50px; font-weight:bold;""
                            >sad</p>
                            <div style=""width:240px; margin: auto;"">
                                <img src=""images/map27_RdYlBu_scaleRev_orientDef_090.png"" style= ""width:200px""alt=""img"">
                            </div>
                        </div>",0.5725,"",0,"",NA,"","images/map27_RdYlBu_scaleRev_orientDef_090.png","sad",1,27,27,"RdYlBu","orientDef","scaleRev","090",NA,NA
"","","","","","html-slider-response",51,151968,"0.0-47.0","qe77kgf7f9",14,NA,"<div style=""width:500px;"">
                            <p style=""font-size:50px; font-weight:bold;""
                            >sad</p>
                            <div style=""width:240px; margin: auto;"">
                                <img src=""images/map23_PiYG_scaleDef_orientMir_000.png"" style= ""width:200px""alt=""img"">
                            </div>
                        </div>",0.175,"",0,"",NA,"","images/map23_PiYG_scaleDef_orientMir_000.png","sad",1,23,23,"PiYG","orientMir","scaleDef","000",NA,NA
"","","","","","html-slider-response",52,153793,"0.0-48.0","qe77kgf7f9",14,NA,"<div style=""width:500px;"">
                            <p style=""font-size:50px; font-weight:bold;""
                            >sad</p>
                            <div style=""width:240px; margin: auto;"">
                                <img src=""images/map15_GnBu_scaleRev_orientDef_090.png"" style= ""width:200px""alt=""img"">
                            </div>
                        </div>",0.905,"",0,"",NA,"","images/map15_GnBu_scaleRev_orientDef_090.png","sad",1,15,15,"GnBu","orientDef","scaleRev","090",NA,NA
"","","","","","html-slider-response",53,155594,"0.0-49.0","qe77kgf7f9",14,NA,"<div style=""width:500px;"">
                            <p style=""font-size:50px; font-weight:bold;""
                            >sad</p>
                            <div style=""width:240px; margin: auto;"">
                                <img src=""images/map05_turbo_scaleDef_orientMir_000.png"" style= ""width:200px""alt=""img"">
                            </div>
                        </div>",0.58,"",0,"",NA,"","images/map05_turbo_scaleDef_orientMir_000.png","sad",1,5,5,"turbo","orientMir","scaleDef","000",NA,NA
"","","","","","html-slider-response",54,157555,"0.0-50.0","qe77kgf7f9",14,NA,"<div style=""width:500px;"">
                            <p style=""font-size:50px; font-weight:bold;""
                            >sad</p>
                            <div style=""width:240px; margin: auto;"">
                                <img src=""images/map07_cividis_scaleRev_orientMir_270.png"" style= ""width:200px""alt=""img"">
                            </div>
                        </div>",0.535,"",0,"",NA,"","images/map07_cividis_scaleRev_orientMir_270.png","sad",1,7,7,"cividis","orientMir","scaleRev","270",NA,NA
"","","","","","html-slider-response",55,159135,"0.0-51.0","qe77kgf7f9",14,NA,"<div style=""width:500px;"">
                            <p style=""font-size:50px; font-weight:bold;""
                            >sad</p>
                            <div style=""width:240px; margin: auto;"">
                                <img src=""images/map05_viridis_scaleDef_orientMir_180.png"" style= ""width:200px""alt=""img"">
                            </div>
                        </div>",0.605,"",0,"",NA,"","images/map05_viridis_scaleDef_orientMir_180.png","sad",1,5,5,"viridis","orientMir","scaleDef","180",NA,NA
"","","","","","html-slider-response",56,161143,"0.0-52.0","qe77kgf7f9",14,NA,"<div style=""width:500px;"">
                            <p style=""font-size:50px; font-weight:bold;""
                            >sad</p>
                            <div style=""width:240px; margin: auto;"">
                                <img src=""images/map10_Greens_scaleRev_orientMir_270.png"" style= ""width:200px""alt=""img"">
                            </div>
                        </div>",0.3075,"",0,"",NA,"","images/map10_Greens_scaleRev_orientMir_270.png","sad",1,10,10,"Greens","orientMir","scaleRev","270",NA,NA
"","","","","","html-slider-response",57,162275,"0.0-53.0","qe77kgf7f9",14,NA,"<div style=""width:500px;"">
                            <p style=""font-size:50px; font-weight:bold;""
                            >sad</p>
                            <div style=""width:240px; margin: auto;"">
                                <img src=""images/map23_YlGn_scaleDef_orientDef_180.png"" style= ""width:200px""alt=""img"">
                            </div>
                        </div>",0.3075,"",0,"",NA,"","images/map23_YlGn_scaleDef_orientDef_180.png","sad",1,23,23,"YlGn","orientDef","scaleDef","180",NA,NA
"","","","","","html-button-response",58,164558,"0.0-54.0","qe77kgf7f9",14,1775,"<p>You are doing great!<br></br> You are halway done with the current block. When you are ready to continue, click the 'Continue' button.</p>",0.5,"",NA,"",NA,"","","",NA,NA,NA,"","","","",NA,NA
"","","","","","html-slider-response",59,169266,"0.0-55.0","qe77kgf7f9",14,NA,"<div style=""width:500px;"">
                            <p style=""font-size:50px; font-weight:bold;""
                            >sad</p>
                            <div style=""width:240px; margin: auto;"">
                                <img src=""images/map10_Blues_scaleRev_orientMir_090.png"" style= ""width:200px""alt=""img"">
                            </div>
                        </div>",0.9975,"",0,"",NA,"","images/map10_Blues_scaleRev_orientMir_090.png","sad",1,10,10,"Blues","orientMir","scaleRev","090",NA,NA
"","","","","","html-slider-response",60,172140,"0.0-56.0","qe77kgf7f9",14,NA,"<div style=""width:500px;"">
                            <p style=""font-size:50px; font-weight:bold;""
                            >sad</p>
                            <div style=""width:240px; margin: auto;"">
                                <img src=""images/map26_PuOr_scaleDef_orientDef_180.png"" style= ""width:200px""alt=""img"">
                            </div>
                        </div>",0.385,"",0,"",NA,"","images/map26_PuOr_scaleDef_orientDef_180.png","sad",1,26,26,"PuOr","orientDef","scaleDef","180",NA,NA
"","","","","","html-slider-response",61,175175,"0.0-57.0","qe77kgf7f9",14,NA,"<div style=""width:500px;"">
                            <p style=""font-size:50px; font-weight:bold;""
                            >sad</p>
                            <div style=""width:240px; margin: auto;"">
                                <img src=""images/map26_RdGy_scaleDef_orientMir_000.png"" style= ""width:200px""alt=""img"">
                            </div>
                        </div>",0.545,"",0,"",NA,"","images/map26_RdGy_scaleDef_orientMir_000.png","sad",1,26,26,"RdGy","orientMir","scaleDef","000",NA,NA
"","","","","","html-slider-response",62,176927,"0.0-58.0","qe77kgf7f9",14,NA,"<div style=""width:500px;"">
                            <p style=""font-size:50px; font-weight:bold;""
                            >sad</p>
                            <div style=""width:240px; margin: auto;"">
                                <img src=""images/map15_PuBuGn_scaleDef_orientMir_180.png"" style= ""width:200px""alt=""img"">
                            </div>
                        </div>",0.885,"",0,"",NA,"","images/map15_PuBuGn_scaleDef_orientMir_180.png","sad",1,15,15,"PuBuGn","orientMir","scaleDef","180",NA,NA
"","","","","","html-slider-response",63,179036,"0.0-59.0","qe77kgf7f9",14,NA,"<div style=""width:500px;"">
                            <p style=""font-size:50px; font-weight:bold;""
                            >sad</p>
                            <div style=""width:240px; margin: auto;"">
                                <img src=""images/map10_Purples_scaleRev_orientDef_270.png"" style= ""width:200px""alt=""img"">
                            </div>
                        </div>",0.2,"",0,"",NA,"","images/map10_Purples_scaleRev_orientDef_270.png","sad",1,10,10,"Purples","orientDef","scaleRev","270",NA,NA
"","","","","","html-slider-response",64,180883,"0.0-60.0","qe77kgf7f9",14,NA,"<div style=""width:500px;"">
                            <p style=""font-size:50px; font-weight:bold;""
                            >sad</p>
                            <div style=""width:240px; margin: auto;"">
                                <img src=""images/map27_Spectral_scaleDef_orientMir_000.png"" style= ""width:200px""alt=""img"">
                            </div>
                        </div>",0.615,"",0,"",NA,"","images/map27_Spectral_scaleDef_orientMir_000.png","sad",1,27,27,"Spectral","orientMir","scaleDef","000",NA,NA
"","","","","","html-slider-response",65,185228,"0.0-61.0","qe77kgf7f9",14,NA,"<div style=""width:500px;"">
                            <p style=""font-size:50px; font-weight:bold;""
                            >sad</p>
                            <div style=""width:240px; margin: auto;"">
                                <img src=""images/map23_BuGn_scaleRev_orientDef_090.png"" style= ""width:200px""alt=""img"">
                            </div>
                        </div>",0.5325,"",0,"",NA,"","images/map23_BuGn_scaleRev_orientDef_090.png","sad",1,23,23,"BuGn","orientDef","scaleRev","090",NA,NA
"","","","","","html-slider-response",66,186422,"0.0-62.0","qe77kgf7f9",14,NA,"<div style=""width:500px;"">
                            <p style=""font-size:50px; font-weight:bold;""
                            >sad</p>
                            <div style=""width:240px; margin: auto;"">
                                <img src=""images/map23_PiYG_scaleRev_orientMir_090.png"" style= ""width:200px""alt=""img"">
                            </div>
                        </div>",0.5325,"",0,"",NA,"","images/map23_PiYG_scaleRev_orientMir_090.png","sad",1,23,23,"PiYG","orientMir","scaleRev","090",NA,NA
"","","","","","html-slider-response",67,187930,"0.0-63.0","qe77kgf7f9",14,NA,"<div style=""width:500px;"">
                            <p style=""font-size:50px; font-weight:bold;""
                            >sad</p>
                            <div style=""width:240px; margin: auto;"">
                                <img src=""images/map27_RdYlGn_scaleRev_orientDef_270.png"" style= ""width:200px""alt=""img"">
                            </div>
                        </div>",0.4675,"",0,"",NA,"","images/map27_RdYlGn_scaleRev_orientDef_270.png","sad",1,27,27,"RdYlGn","orientDef","scaleRev","270",NA,NA
"","","","","","html-slider-response",68,189056,"0.0-64.0","qe77kgf7f9",14,NA,"<div style=""width:500px;"">
                            <p style=""font-size:50px; font-weight:bold;""
                            >sad</p>
                            <div style=""width:240px; margin: auto;"">
                                <img src=""images/map13_BuPu_scaleRev_orientMir_270.png"" style= ""width:200px""alt=""img"">
                            </div>
                        </div>",0.385,"",0,"",NA,"","images/map13_BuPu_scaleRev_orientMir_270.png","sad",1,13,13,"BuPu","orientMir","scaleRev","270",NA,NA
"","","","","","html-slider-response",69,190102,"0.0-65.0","qe77kgf7f9",14,NA,"<div style=""width:500px;"">
                            <p style=""font-size:50px; font-weight:bold;""
                            >sad</p>
                            <div style=""width:240px; margin: auto;"">
                                <img src=""images/map07_plasma_scaleDef_orientDef_000.png"" style= ""width:200px""alt=""img"">
                            </div>
                        </div>",0.315,"",0,"",NA,"","images/map07_plasma_scaleDef_orientDef_000.png","sad",1,7,7,"plasma","orientDef","scaleDef","000",NA,NA
"","","","","","html-slider-response",70,191552,"0.0-66.0","qe77kgf7f9",14,NA,"<div style=""width:500px;"">
                            <p style=""font-size:50px; font-weight:bold;""
                            >sad</p>
                            <div style=""width:240px; margin: auto;"">
                                <img src=""images/map07_inferno_scaleDef_orientDef_180.png"" style= ""width:200px""alt=""img"">
                            </div>
                        </div>",0.26,"",0,"",NA,"","images/map07_inferno_scaleDef_orientDef_180.png","sad",1,7,7,"inferno","orientDef","scaleDef","180",NA,NA
"","","","","","html-slider-response",71,193443,"0.0-67.0","qe77kgf7f9",14,NA,"<div style=""width:500px;"">
                            <p style=""font-size:50px; font-weight:bold;""
                            >sad</p>
                            <div style=""width:240px; margin: auto;"">
                                <img src=""images/map27_Spectral_scaleRev_orientMir_090.png"" style= ""width:200px""alt=""img"">
                            </div>
                        </div>",0.545,"",0,"",NA,"","images/map27_Spectral_scaleRev_orientMir_090.png","sad",1,27,27,"Spectral","orientMir","scaleRev","090",NA,NA
"","","","","","html-slider-response",72,194859,"0.0-68.0","qe77kgf7f9",14,NA,"<div style=""width:500px;"">
                            <p style=""font-size:50px; font-weight:bold;""
                            >sad</p>
                            <div style=""width:240px; margin: auto;"">
                                <img src=""images/map05_turbo_scaleRev_orientMir_090.png"" style= ""width:200px""alt=""img"">
                            </div>
                        </div>",0.545,"",0,"",NA,"","images/map05_turbo_scaleRev_orientMir_090.png","sad",1,5,5,"turbo","orientMir","scaleRev","090",NA,NA
"","","","","","html-slider-response",73,196680,"0.0-69.0","qe77kgf7f9",14,NA,"<div style=""width:500px;"">
                            <p style=""font-size:50px; font-weight:bold;""
                            >sad</p>
                            <div style=""width:240px; margin: auto;"">
                                <img src=""images/map27_RdYlGn_scaleDef_orientDef_180.png"" style= ""width:200px""alt=""img"">
                            </div>
                        </div>",0.2725,"",0,"",NA,"","images/map27_RdYlGn_scaleDef_orientDef_180.png","sad",1,27,27,"RdYlGn","orientDef","scaleDef","180",NA,NA
"","","","","","html-slider-response",74,198227,"0.0-70.0","qe77kgf7f9",14,NA,"<div style=""width:500px;"">
                            <p style=""font-size:50px; font-weight:bold;""
                            >sad</p>
                            <div style=""width:240px; margin: auto;"">
                                <img src=""images/map26_BrBG_scaleDef_orientDef_000.png"" style= ""width:200px""alt=""img"">
                            </div>
                        </div>",0.62,"",0,"",NA,"","images/map26_BrBG_scaleDef_orientDef_000.png","sad",1,26,26,"BrBG","orientDef","scaleDef","000",NA,NA
"","","","","","html-slider-response",75,199865,"0.0-71.0","qe77kgf7f9",14,NA,"<div style=""width:500px;"">
                            <p style=""font-size:50px; font-weight:bold;""
                            >sad</p>
                            <div style=""width:240px; margin: auto;"">
                                <img src=""images/map10_Greys_scaleDef_orientDef_000.png"" style= ""width:200px""alt=""img"">
                            </div>
                        </div>",0.9175,"",0,"",NA,"","images/map10_Greys_scaleDef_orientDef_000.png","sad",1,10,10,"Greys","orientDef","scaleDef","000",NA,NA
"","","","","","html-slider-response",76,201609,"0.0-72.0","qe77kgf7f9",14,NA,"<div style=""width:500px;"">
                            <p style=""font-size:50px; font-weight:bold;""
                            >sad</p>
                            <div style=""width:240px; margin: auto;"">
                                <img src=""images/map13_OrRd_scaleRev_orientDef_090.png"" style= ""width:200px""alt=""img"">
                            </div>
                        </div>",0.22,"",0,"",NA,"","images/map13_OrRd_scaleRev_orientDef_090.png","sad",1,13,13,"OrRd","orientDef","scaleRev","090",NA,NA
"","","","","","html-slider-response",77,203297,"0.0-73.0","qe77kgf7f9",14,NA,"<div style=""width:500px;"">
                            <p style=""font-size:50px; font-weight:bold;""
                            >sad</p>
                            <div style=""width:240px; margin: auto;"">
                                <img src=""images/map15_PuBu_scaleRev_orientDef_270.png"" style= ""width:200px""alt=""img"">
                            </div>
                        </div>",0.9275,"",0,"",NA,"","images/map15_PuBu_scaleRev_orientDef_270.png","sad",1,15,15,"PuBu","orientDef","scaleRev","270",NA,NA
"","","","","","html-slider-response",78,205050,"0.0-74.0","qe77kgf7f9",14,NA,"<div style=""width:500px;"">
                            <p style=""font-size:50px; font-weight:bold;""
                            >sad</p>
                            <div style=""width:240px; margin: auto;"">
                                <img src=""images/map26_RdBu_scaleRev_orientMir_270.png"" style= ""width:200px""alt=""img"">
                            </div>
                        </div>",0.635,"",0,"",NA,"","images/map26_RdBu_scaleRev_orientMir_270.png","sad",1,26,26,"RdBu","orientMir","scaleRev","270",NA,NA
"","","","","","html-slider-response",79,206452,"0.0-75.0","qe77kgf7f9",14,NA,"<div style=""width:500px;"">
                            <p style=""font-size:50px; font-weight:bold;""
                            >sad</p>
                            <div style=""width:240px; margin: auto;"">
                                <img src=""images/map05_gist_earth_scaleRev_orientDef_270.png"" style= ""width:200px""alt=""img"">
                            </div>
                        </div>",0.6575,"",0,"",NA,"","images/map05_gist_earth_scaleRev_orientDef_270.png","sad",1,5,5,"gist","scaleRev","earth","orientDef",NA,NA
"","","","","","html-slider-response",80,208206,"0.0-76.0","qe77kgf7f9",14,NA,"<div style=""width:500px;"">
                            <p style=""font-size:50px; font-weight:bold;""
                            >sad</p>
                            <div style=""width:240px; margin: auto;"">
                                <img src=""images/map12_Reds_scaleDef_orientDef_180.png"" style= ""width:200px""alt=""img"">
                            </div>
                        </div>",0.1475,"",0,"",NA,"","images/map12_Reds_scaleDef_orientDef_180.png","sad",1,12,12,"Reds","orientDef","scaleDef","180",NA,NA
"","","","","","html-slider-response",81,209868,"0.0-77.0","qe77kgf7f9",14,NA,"<div style=""width:500px;"">
                            <p style=""font-size:50px; font-weight:bold;""
                            >sad</p>
                            <div style=""width:240px; margin: auto;"">
                                <img src=""images/map12_YlOrBr_scaleDef_orientMir_000.png"" style= ""width:200px""alt=""img"">
                            </div>
                        </div>",0.225,"",0,"",NA,"","images/map12_YlOrBr_scaleDef_orientMir_000.png","sad",1,12,12,"YlOrBr","orientMir","scaleDef","000",NA,NA
"","","","","","html-slider-response",82,212193,"0.0-78.0","qe77kgf7f9",14,NA,"<div style=""width:500px;"">
                            <p style=""font-size:50px; font-weight:bold;""
                            >sad</p>
                            <div style=""width:240px; margin: auto;"">
                                <img src=""images/map05_vanimo_scaleDef_orientDef_000.png"" style= ""width:200px""alt=""img"">
                            </div>
                        </div>",0.41,"",0,"",NA,"","images/map05_vanimo_scaleDef_orientDef_000.png","sad",1,5,5,"vanimo","orientDef","scaleDef","000",NA,NA
"","","","","","html-slider-response",83,213531,"0.0-79.0","qe77kgf7f9",14,NA,"<div style=""width:500px;"">
                            <p style=""font-size:50px; font-weight:bold;""
                            >sad</p>
                            <div style=""width:240px; margin: auto;"">
                                <img src=""images/map05_vanimo_scaleRev_orientDef_090.png"" style= ""width:200px""alt=""img"">
                            </div>
                        </div>",0.41,"",0,"",NA,"","images/map05_vanimo_scaleRev_orientDef_090.png","sad",1,5,5,"vanimo","orientDef","scaleRev","090",NA,NA
"","","","","","html-slider-response",84,215902,"0.0-80.0","qe77kgf7f9",14,NA,"<div style=""width:500px;"">
                            <p style=""font-size:50px; font-weight:bold;""
                            >sad</p>
                            <div style=""width:240px; margin: auto;"">
                                <img src=""images/map15_PuBuGn_scaleRev_orientMir_270.png"" style= ""width:200px""alt=""img"">
                            </div>
                        </div>",0.9475,"",0,"",NA,"","images/map15_PuBuGn_scaleRev_orientMir_270.png","sad",1,15,15,"PuBuGn","orientMir","scaleRev","270",NA,NA
"","","","","","html-slider-response",85,217708,"0.0-81.0","qe77kgf7f9",14,NA,"<div style=""width:500px;"">
                            <p style=""font-size:50px; font-weight:bold;""
                            >sad</p>
                            <div style=""width:240px; margin: auto;"">
                                <img src=""images/map27_coolwarm_scaleDef_orientMir_180.png"" style= ""width:200px""alt=""img"">
                            </div>
                        </div>",0.585,"",0,"",NA,"","images/map27_coolwarm_scaleDef_orientMir_180.png","sad",1,27,27,"coolwarm","orientMir","scaleDef","180",NA,NA
"","","","","","html-slider-response",86,221125,"0.0-82.0","qe77kgf7f9",14,NA,"<div style=""width:500px;"">
                            <p style=""font-size:50px; font-weight:bold;""
                            >sad</p>
                            <div style=""width:240px; margin: auto;"">
                                <img src=""images/map12_YlOrRd_scaleDef_orientMir_180.png"" style= ""width:200px""alt=""img"">
                            </div>
                        </div>",0.2275,"",0,"",NA,"","images/map12_YlOrRd_scaleDef_orientMir_180.png","sad",1,12,12,"YlOrRd","orientMir","scaleDef","180",NA,NA
"","","","","","html-slider-response",87,222780,"0.0-83.0","qe77kgf7f9",14,NA,"<div style=""width:500px;"">
                            <p style=""font-size:50px; font-weight:bold;""
                            >sad</p>
                            <div style=""width:240px; margin: auto;"">
                                <img src=""images/map15_YlGnBu_scaleDef_orientMir_000.png"" style= ""width:200px""alt=""img"">
                            </div>
                        </div>",0.8425,"",0,"",NA,"","images/map15_YlGnBu_scaleDef_orientMir_000.png","sad",1,15,15,"YlGnBu","orientMir","scaleDef","000",NA,NA
"","","","","","html-slider-response",88,224599,"0.0-84.0","qe77kgf7f9",14,NA,"<div style=""width:500px;"">
                            <p style=""font-size:50px; font-weight:bold;""
                            >sad</p>
                            <div style=""width:240px; margin: auto;"">
                                <img src=""images/map13_OrRd_scaleDef_orientDef_000.png"" style= ""width:200px""alt=""img"">
                            </div>
                        </div>",0.2475,"",0,"",NA,"","images/map13_OrRd_scaleDef_orientDef_000.png","sad",1,13,13,"OrRd","orientDef","scaleDef","000",NA,NA
"","","","","","html-slider-response",89,226484,"0.0-85.0","qe77kgf7f9",14,NA,"<div style=""width:500px;"">
                            <p style=""font-size:50px; font-weight:bold;""
                            >sad</p>
                            <div style=""width:240px; margin: auto;"">
                                <img src=""images/map23_PRGn_scaleRev_orientMir_270.png"" style= ""width:200px""alt=""img"">
                            </div>
                        </div>",0.275,"",0,"",NA,"","images/map23_PRGn_scaleRev_orientMir_270.png","sad",1,23,23,"PRGn","orientMir","scaleRev","270",NA,NA
"","","","","","html-slider-response",90,228123,"0.0-86.0","qe77kgf7f9",14,NA,"<div style=""width:500px;"">
                            <p style=""font-size:50px; font-weight:bold;""
                            >sad</p>
                            <div style=""width:240px; margin: auto;"">
                                <img src=""images/map15_GnBu_scaleDef_orientDef_000.png"" style= ""width:200px""alt=""img"">
                            </div>
                        </div>",0.9525,"",0,"",NA,"","images/map15_GnBu_scaleDef_orientDef_000.png","sad",1,15,15,"GnBu","orientDef","scaleDef","000",NA,NA
"","","","","","html-slider-response",91,229778,"0.0-87.0","qe77kgf7f9",14,NA,"<div style=""width:500px;"">
                            <p style=""font-size:50px; font-weight:bold;""
                            >sad</p>
                            <div style=""width:240px; margin: auto;"">
                                <img src=""images/map13_RdPu_scaleRev_orientMir_090.png"" style= ""width:200px""alt=""img"">
                            </div>
                        </div>",0.195,"",0,"",NA,"","images/map13_RdPu_scaleRev_orientMir_090.png","sad",1,13,13,"RdPu","orientMir","scaleRev","090",NA,NA
"","","","","","html-slider-response",92,231580,"0.0-88.0","qe77kgf7f9",14,NA,"<div style=""width:500px;"">
                            <p style=""font-size:50px; font-weight:bold;""
                            >sad</p>
                            <div style=""width:240px; margin: auto;"">
                                <img src=""images/map27_coolwarm_scaleRev_orientMir_270.png"" style= ""width:200px""alt=""img"">
                            </div>
                        </div>",0.705,"",0,"",NA,"","images/map27_coolwarm_scaleRev_orientMir_270.png","sad",1,27,27,"coolwarm","orientMir","scaleRev","270",NA,NA
"","","","","","html-slider-response",93,233643,"0.0-89.0","qe77kgf7f9",14,NA,"<div style=""width:500px;"">
                            <p style=""font-size:50px; font-weight:bold;""
                            >sad</p>
                            <div style=""width:240px; margin: auto;"">
                                <img src=""images/map13_PuRd_scaleDef_orientDef_180.png"" style= ""width:200px""alt=""img"">
                            </div>
                        </div>",0.2275,"",0,"",NA,"","images/map13_PuRd_scaleDef_orientDef_180.png","sad",1,13,13,"PuRd","orientDef","scaleDef","180",NA,NA
"","","","","","html-slider-response",94,236954,"0.0-90.0","qe77kgf7f9",14,NA,"<div style=""width:500px;"">
                            <p style=""font-size:50px; font-weight:bold;""
                            >sad</p>
                            <div style=""width:240px; margin: auto;"">
                                <img src=""images/map07_magma_scaleRev_orientMir_090.png"" style= ""width:200px""alt=""img"">
                            </div>
                        </div>",0.225,"",0,"",NA,"","images/map07_magma_scaleRev_orientMir_090.png","sad",1,7,7,"magma","orientMir","scaleRev","090",NA,NA
"","","","","","html-slider-response",95,238301,"0.0-91.0","qe77kgf7f9",14,NA,"<div style=""width:500px;"">
                            <p style=""font-size:50px; font-weight:bold;""
                            >sad</p>
                            <div style=""width:240px; margin: auto;"">
                                <img src=""images/map12_YlOrBr_scaleRev_orientMir_090.png"" style= ""width:200px""alt=""img"">
                            </div>
                        </div>",0.225,"",0,"",NA,"","images/map12_YlOrBr_scaleRev_orientMir_090.png","sad",1,12,12,"YlOrBr","orientMir","scaleRev","090",NA,NA
"","","","","","html-slider-response",96,239651,"0.0-92.0","qe77kgf7f9",14,NA,"<div style=""width:500px;"">
                            <p style=""font-size:50px; font-weight:bold;""
                            >sad</p>
                            <div style=""width:240px; margin: auto;"">
                                <img src=""images/map12_YlOrRd_scaleRev_orientMir_270.png"" style= ""width:200px""alt=""img"">
                            </div>
                        </div>",0.225,"",0,"",NA,"","images/map12_YlOrRd_scaleRev_orientMir_270.png","sad",1,12,12,"YlOrRd","orientMir","scaleRev","270",NA,NA
"","","","","","html-slider-response",97,240717,"0.0-93.0","qe77kgf7f9",14,NA,"<div style=""width:500px;"">
                            <p style=""font-size:50px; font-weight:bold;""
                            >sad</p>
                            <div style=""width:240px; margin: auto;"">
                                <img src=""images/map13_RdPu_scaleDef_orientMir_000.png"" style= ""width:200px""alt=""img"">
                            </div>
                        </div>",0.225,"",0,"",NA,"","images/map13_RdPu_scaleDef_orientMir_000.png","sad",1,13,13,"RdPu","orientMir","scaleDef","000",NA,NA
"","","","","","html-slider-response",98,241903,"0.0-94.0","qe77kgf7f9",14,NA,"<div style=""width:500px;"">
                            <p style=""font-size:50px; font-weight:bold;""
                            >sad</p>
                            <div style=""width:240px; margin: auto;"">
                                <img src=""images/map23_YlGn_scaleRev_orientDef_270.png"" style= ""width:200px""alt=""img"">
                            </div>
                        </div>",0.225,"",0,"",NA,"","images/map23_YlGn_scaleRev_orientDef_270.png","sad",1,23,23,"YlGn","orientDef","scaleRev","270",NA,NA
"","","","","","html-button-response",99,244633,"0.0-95.0","qe77kgf7f9",14,2213,"<p>Great Job! You've finished block 1.<br></br> You have 4 block(s) left to go.<br></br></p>",0.5,"",NA,"",NA,"","","",NA,NA,NA,"","","","",NA,NA
"","","","","","html-button-response",100,246298,"0.0-96.0","qe77kgf7f9",14,1663,"<p>In this block of trials, you will be asked to rate how much you associate each map with:</p > <p style = 'font-size:150%; font-weight: bold'>happy</p><br></br>",0.5,"",NA,"",NA,"","","",NA,NA,NA,"","","","",NA,NA
"","","","","","html-slider-response",101,247693,"0.0-97.0","qe77kgf7f9",14,NA,"<div style=""width:500px;"">
                            <p style=""font-size:50px; font-weight:bold;""
                            >happy</p>
                            <div style=""width:240px; margin: auto;"">
                                <img src=""images/map23_YlGn_scaleRev_orientDef_270.png"" style= ""width:200px""alt=""img"">
                            </div>
                        </div>",0.265,"",0,"",NA,"","images/map23_YlGn_scaleRev_orientDef_270.png","happy",1,23,23,"YlGn","orientDef","scaleRev","270",NA,NA
"","","","","","html-slider-response",102,248793,"0.0-98.0","qe77kgf7f9",14,NA,"<div style=""width:500px;"">
                            <p style=""font-size:50px; font-weight:bold;""
                            >happy</p>
                            <div style=""width:240px; margin: auto;"">
                                <img src=""images/map05_gist_earth_scaleDef_orientDef_180.png"" style= ""width:200px""alt=""img"">
                            </div>
                        </div>",0.265,"",0,"",NA,"","images/map05_gist_earth_scaleDef_orientDef_180.png","happy",1,5,5,"gist","scaleDef","earth","orientDef",NA,NA
"","","","","","html-slider-response",103,250709,"0.0-99.0","qe77kgf7f9",14,NA,"<div style=""width:500px;"">
                            <p style=""font-size:50px; font-weight:bold;""
                            >happy</p>
                            <div style=""width:240px; margin: auto;"">
                                <img src=""images/map13_RdPu_scaleDef_orientMir_000.png"" style= ""width:200px""alt=""img"">
                            </div>
                        </div>",0.795,"",0,"",NA,"","images/map13_RdPu_scaleDef_orientMir_000.png","happy",1,13,13,"RdPu","orientMir","scaleDef","000",NA,NA
"","","","","","html-slider-response",104,252501,"0.0-100.0","qe77kgf7f9",14,NA,"<div style=""width:500px;"">
                            <p style=""font-size:50px; font-weight:bold;""
                            >happy</p>
                            <div style=""width:240px; margin: auto;"">
                                <img src=""images/map26_PuOr_scaleRev_orientDef_270.png"" style= ""width:200px""alt=""img"">
                            </div>
                        </div>",0.595,"",0,"",NA,"","images/map26_PuOr_scaleRev_orientDef_270.png","happy",1,26,26,"PuOr","orientDef","scaleRev","270",NA,NA
"","","","","","html-slider-response",105,253828,"0.0-101.0","qe77kgf7f9",14,NA,"<div style=""width:500px;"">
                            <p style=""font-size:50px; font-weight:bold;""
                            >happy</p>
                            <div style=""width:240px; margin: auto;"">
                                <img src=""images/map13_PuRd_scaleRev_orientDef_270.png"" style= ""width:200px""alt=""img"">
                            </div>
                        </div>",0.595,"",0,"",NA,"","images/map13_PuRd_scaleRev_orientDef_270.png","happy",1,13,13,"PuRd","orientDef","scaleRev","270",NA,NA
"","","","","","html-slider-response",106,255596,"0.0-102.0","qe77kgf7f9",14,NA,"<div style=""width:500px;"">
                            <p style=""font-size:50px; font-weight:bold;""
                            >happy</p>
                            <div style=""width:240px; margin: auto;"">
                                <img src=""images/map23_YlGn_scaleDef_orientDef_180.png"" style= ""width:200px""alt=""img"">
                            </div>
                        </div>",0.3575,"",0,"",NA,"","images/map23_YlGn_scaleDef_orientDef_180.png","happy",1,23,23,"YlGn","orientDef","scaleDef","180",NA,NA
"","","","","","html-slider-response",107,257427,"0.0-103.0","qe77kgf7f9",14,NA,"<div style=""width:500px;"">
                            <p style=""font-size:50px; font-weight:bold;""
                            >happy</p>
                            <div style=""width:240px; margin: auto;"">
                                <img src=""images/map27_Spectral_scaleRev_orientMir_090.png"" style= ""width:200px""alt=""img"">
                            </div>
                        </div>",0.6675,"",0,"",NA,"","images/map27_Spectral_scaleRev_orientMir_090.png","happy",1,27,27,"Spectral","orientMir","scaleRev","090",NA,NA
"","","","","","html-slider-response",108,260085,"0.0-104.0","qe77kgf7f9",14,NA,"<div style=""width:500px;"">
                            <p style=""font-size:50px; font-weight:bold;""
                            >happy</p>
                            <div style=""width:240px; margin: auto;"">
                                <img src=""images/map15_YlGnBu_scaleRev_orientMir_090.png"" style= ""width:200px""alt=""img"">
                            </div>
                        </div>",0.585,"",0,"",NA,"","images/map15_YlGnBu_scaleRev_orientMir_090.png","happy",1,15,15,"YlGnBu","orientMir","scaleRev","090",NA,NA
"","","","","","html-slider-response",109,261822,"0.0-105.0","qe77kgf7f9",14,NA,"<div style=""width:500px;"">
                            <p style=""font-size:50px; font-weight:bold;""
                            >happy</p>
                            <div style=""width:240px; margin: auto;"">
                                <img src=""images/map02_managua_scaleRev_orientMir_270.png"" style= ""width:200px""alt=""img"">
                            </div>
                        </div>",0.34,"",0,"",NA,"","images/map02_managua_scaleRev_orientMir_270.png","happy",1,2,2,"managua","orientMir","scaleRev","270",NA,NA
"","","","","","html-slider-response",110,263394,"0.0-106.0","qe77kgf7f9",14,NA,"<div style=""width:500px;"">
                            <p style=""font-size:50px; font-weight:bold;""
                            >happy</p>
                            <div style=""width:240px; margin: auto;"">
                                <img src=""images/map15_PuBu_scaleRev_orientDef_270.png"" style= ""width:200px""alt=""img"">
                            </div>
                        </div>",0.59,"",0,"",NA,"","images/map15_PuBu_scaleRev_orientDef_270.png","happy",1,15,15,"PuBu","orientDef","scaleRev","270",NA,NA
"","","","","","html-slider-response",111,265018,"0.0-107.0","qe77kgf7f9",14,NA,"<div style=""width:500px;"">
                            <p style=""font-size:50px; font-weight:bold;""
                            >happy</p>
                            <div style=""width:240px; margin: auto;"">
                                <img src=""images/map13_RdPu_scaleRev_orientMir_090.png"" style= ""width:200px""alt=""img"">
                            </div>
                        </div>",0.6575,"",0,"",NA,"","images/map13_RdPu_scaleRev_orientMir_090.png","happy",1,13,13,"RdPu","orientMir","scaleRev","090",NA,NA
"","","","","","html-slider-response",112,266226,"0.0-108.0","qe77kgf7f9",14,NA,"<div style=""width:500px;"">
                            <p style=""font-size:50px; font-weight:bold;""
                            >happy</p>
                            <div style=""width:240px; margin: auto;"">
                                <img src=""images/map27_Spectral_scaleDef_orientMir_000.png"" style= ""width:200px""alt=""img"">
                            </div>
                        </div>",0.6575,"",0,"",NA,"","images/map27_Spectral_scaleDef_orientMir_000.png","happy",1,27,27,"Spectral","orientMir","scaleDef","000",NA,NA
"","","","","","html-slider-response",113,267926,"0.0-109.0","qe77kgf7f9",14,NA,"<div style=""width:500px;"">
                            <p style=""font-size:50px; font-weight:bold;""
                            >happy</p>
                            <div style=""width:240px; margin: auto;"">
                                <img src=""images/map02_berlin_scaleDef_orientMir_000.png"" style= ""width:200px""alt=""img"">
                            </div>
                        </div>",0.255,"",0,"",NA,"","images/map02_berlin_scaleDef_orientMir_000.png","happy",1,2,2,"berlin","orientMir","scaleDef","000",NA,NA
"","","","","","html-slider-response",114,269405,"0.0-110.0","qe77kgf7f9",14,NA,"<div style=""width:500px;"">
                            <p style=""font-size:50px; font-weight:bold;""
                            >happy</p>
                            <div style=""width:240px; margin: auto;"">
                                <img src=""images/map23_BuGn_scaleRev_orientDef_090.png"" style= ""width:200px""alt=""img"">
                            </div>
                        </div>",0.635,"",0,"",NA,"","images/map23_BuGn_scaleRev_orientDef_090.png","happy",1,23,23,"BuGn","orientDef","scaleRev","090",NA,NA
"","","","","","html-slider-response",115,270805,"0.0-111.0","qe77kgf7f9",14,NA,"<div style=""width:500px;"">
                            <p style=""font-size:50px; font-weight:bold;""
                            >happy</p>
                            <div style=""width:240px; margin: auto;"">
                                <img src=""images/map26_BrBG_scaleDef_orientDef_000.png"" style= ""width:200px""alt=""img"">
                            </div>
                        </div>",0.63,"",0,"",NA,"","images/map26_BrBG_scaleDef_orientDef_000.png","happy",1,26,26,"BrBG","orientDef","scaleDef","000",NA,NA
"","","","","","html-slider-response",116,272013,"0.0-112.0","qe77kgf7f9",14,NA,"<div style=""width:500px;"">
                            <p style=""font-size:50px; font-weight:bold;""
                            >happy</p>
                            <div style=""width:240px; margin: auto;"">
                                <img src=""images/map07_plasma_scaleRev_orientDef_090.png"" style= ""width:200px""alt=""img"">
                            </div>
                        </div>",0.63,"",0,"",NA,"","images/map07_plasma_scaleRev_orientDef_090.png","happy",1,7,7,"plasma","orientDef","scaleRev","090",NA,NA
"","","","","","html-slider-response",117,273500,"0.0-113.0","qe77kgf7f9",14,NA,"<div style=""width:500px;"">
                            <p style=""font-size:50px; font-weight:bold;""
                            >happy</p>
                            <div style=""width:240px; margin: auto;"">
                                <img src=""images/map26_PuOr_scaleDef_orientDef_180.png"" style= ""width:200px""alt=""img"">
                            </div>
                        </div>",0.7025,"",0,"",NA,"","images/map26_PuOr_scaleDef_orientDef_180.png","happy",1,26,26,"PuOr","orientDef","scaleDef","180",NA,NA
"","","","","","html-slider-response",118,275268,"0.0-114.0","qe77kgf7f9",14,NA,"<div style=""width:500px;"">
                            <p style=""font-size:50px; font-weight:bold;""
                            >happy</p>
                            <div style=""width:240px; margin: auto;"">
                                <img src=""images/map07_cividis_scaleRev_orientMir_270.png"" style= ""width:200px""alt=""img"">
                            </div>
                        </div>",0.17,"",0,"",NA,"","images/map07_cividis_scaleRev_orientMir_270.png","happy",1,7,7,"cividis","orientMir","scaleRev","270",NA,NA
"","","","","","html-slider-response",119,276588,"0.0-115.0","qe77kgf7f9",14,NA,"<div style=""width:500px;"">
                            <p style=""font-size:50px; font-weight:bold;""
                            >happy</p>
                            <div style=""width:240px; margin: auto;"">
                                <img src=""images/map26_RdGy_scaleRev_orientMir_090.png"" style= ""width:200px""alt=""img"">
                            </div>
                        </div>",0.1675,"",0,"",NA,"","images/map26_RdGy_scaleRev_orientMir_090.png","happy",1,26,26,"RdGy","orientMir","scaleRev","090",NA,NA
"","","","","","html-slider-response",120,278467,"0.0-116.0","qe77kgf7f9",14,NA,"<div style=""width:500px;"">
                            <p style=""font-size:50px; font-weight:bold;""
                            >happy</p>
                            <div style=""width:240px; margin: auto;"">
                                <img src=""images/map10_Purples_scaleRev_orientDef_270.png"" style= ""width:200px""alt=""img"">
                            </div>
                        </div>",0.3325,"",0,"",NA,"","images/map10_Purples_scaleRev_orientDef_270.png","happy",1,10,10,"Purples","orientDef","scaleRev","270",NA,NA
"","","","","","html-slider-response",121,280460,"0.0-117.0","qe77kgf7f9",14,NA,"<div style=""width:500px;"">
                            <p style=""font-size:50px; font-weight:bold;""
                            >happy</p>
                            <div style=""width:240px; margin: auto;"">
                                <img src=""images/map23_PRGn_scaleRev_orientMir_270.png"" style= ""width:200px""alt=""img"">
                            </div>
                        </div>",0.605,"",0,"",NA,"","images/map23_PRGn_scaleRev_orientMir_270.png","happy",1,23,23,"PRGn","orientMir","scaleRev","270",NA,NA
"","","","","","html-slider-response",122,282252,"0.0-118.0","qe77kgf7f9",14,NA,"<div style=""width:500px;"">
                            <p style=""font-size:50px; font-weight:bold;""
                            >happy</p>
                            <div style=""width:240px; margin: auto;"">
                                <img src=""images/map13_OrRd_scaleDef_orientDef_000.png"" style= ""width:200px""alt=""img"">
                            </div>
                        </div>",0.645,"",0,"",NA,"","images/map13_OrRd_scaleDef_orientDef_000.png","happy",1,13,13,"OrRd","orientDef","scaleDef","000",NA,NA
"","","","","","html-slider-response",123,283584,"0.0-119.0","qe77kgf7f9",14,NA,"<div style=""width:500px;"">
                            <p style=""font-size:50px; font-weight:bold;""
                            >happy</p>
                            <div style=""width:240px; margin: auto;"">
                                <img src=""images/map27_coolwarm_scaleRev_orientMir_270.png"" style= ""width:200px""alt=""img"">
                            </div>
                        </div>",0.645,"",0,"",NA,"","images/map27_coolwarm_scaleRev_orientMir_270.png","happy",1,27,27,"coolwarm","orientMir","scaleRev","270",NA,NA
"","","","","","html-slider-response",124,285591,"0.0-120.0","qe77kgf7f9",14,NA,"<div style=""width:500px;"">
                            <p style=""font-size:50px; font-weight:bold;""
                            >happy</p>
                            <div style=""width:240px; margin: auto;"">
                                <img src=""images/map10_Greens_scaleDef_orientMir_180.png"" style= ""width:200px""alt=""img"">
                            </div>
                        </div>",0.6525,"",0,"",NA,"","images/map10_Greens_scaleDef_orientMir_180.png","happy",1,10,10,"Greens","orientMir","scaleDef","180",NA,NA
"","","","","","html-slider-response",125,286775,"0.0-121.0","qe77kgf7f9",14,NA,"<div style=""width:500px;"">
                            <p style=""font-size:50px; font-weight:bold;""
                            >happy</p>
                            <div style=""width:240px; margin: auto;"">
                                <img src=""images/map23_PiYG_scaleDef_orientMir_000.png"" style= ""width:200px""alt=""img"">
                            </div>
                        </div>",0.6525,"",0,"",NA,"","images/map23_PiYG_scaleDef_orientMir_000.png","happy",1,23,23,"PiYG","orientMir","scaleDef","000",NA,NA
"","","","","","html-slider-response",126,288839,"0.0-122.0","qe77kgf7f9",14,NA,"<div style=""width:500px;"">
                            <p style=""font-size:50px; font-weight:bold;""
                            >happy</p>
                            <div style=""width:240px; margin: auto;"">
                                <img src=""images/map02_seismic_scaleRev_orientDef_270.png"" style= ""width:200px""alt=""img"">
                            </div>
                        </div>",0.7625,"",0,"",NA,"","images/map02_seismic_scaleRev_orientDef_270.png","happy",1,2,2,"seismic","orientDef","scaleRev","270",NA,NA
"","","","","","html-slider-response",127,290863,"0.0-123.0","qe77kgf7f9",14,NA,"<div style=""width:500px;"">
                            <p style=""font-size:50px; font-weight:bold;""
                            >happy</p>
                            <div style=""width:240px; margin: auto;"">
                                <img src=""images/map02_managua_scaleDef_orientMir_180.png"" style= ""width:200px""alt=""img"">
                            </div>
                        </div>",0.2175,"",0,"",NA,"","images/map02_managua_scaleDef_orientMir_180.png","happy",1,2,2,"managua","orientMir","scaleDef","180",NA,NA
"","","","","","html-slider-response",128,292820,"0.0-124.0","qe77kgf7f9",14,NA,"<div style=""width:500px;"">
                            <p style=""font-size:50px; font-weight:bold;""
                            >happy</p>
                            <div style=""width:240px; margin: auto;"">
                                <img src=""images/map10_Greys_scaleRev_orientDef_090.png"" style= ""width:200px""alt=""img"">
                            </div>
                        </div>",0.015,"",0,"",NA,"","images/map10_Greys_scaleRev_orientDef_090.png","happy",1,10,10,"Greys","orientDef","scaleRev","090",NA,NA
"","","","","","html-slider-response",129,294335,"0.0-125.0","qe77kgf7f9",14,NA,"<div style=""width:500px;"">
                            <p style=""font-size:50px; font-weight:bold;""
                            >happy</p>
                            <div style=""width:240px; margin: auto;"">
                                <img src=""images/map26_RdGy_scaleDef_orientMir_000.png"" style= ""width:200px""alt=""img"">
                            </div>
                        </div>",0.015,"",0,"",NA,"","images/map26_RdGy_scaleDef_orientMir_000.png","happy",1,26,26,"RdGy","orientMir","scaleDef","000",NA,NA
"","","","","","html-slider-response",130,295629,"0.0-126.0","qe77kgf7f9",14,NA,"<div style=""width:500px;"">
                            <p style=""font-size:50px; font-weight:bold;""
                            >happy</p>
                            <div style=""width:240px; margin: auto;"">
                                <img src=""images/map26_RdBu_scaleRev_orientMir_270.png"" style= ""width:200px""alt=""img"">
                            </div>
                        </div>",0.015,"",0,"",NA,"","images/map26_RdBu_scaleRev_orientMir_270.png","happy",1,26,26,"RdBu","orientMir","scaleRev","270",NA,NA
"","","","","","html-slider-response",131,297629,"0.0-127.0","qe77kgf7f9",14,NA,"<div style=""width:500px;"">
                            <p style=""font-size:50px; font-weight:bold;""
                            >happy</p>
                            <div style=""width:240px; margin: auto;"">
                                <img src=""images/map05_viridis_scaleRev_orientMir_270.png"" style= ""width:200px""alt=""img"">
                            </div>
                        </div>",0.6275,"",0,"",NA,"","images/map05_viridis_scaleRev_orientMir_270.png","happy",1,5,5,"viridis","orientMir","scaleRev","270",NA,NA
"","","","","","html-slider-response",132,298949,"0.0-128.0","qe77kgf7f9",14,NA,"<div style=""width:500px;"">
                            <p style=""font-size:50px; font-weight:bold;""
                            >happy</p>
                            <div style=""width:240px; margin: auto;"">
                                <img src=""images/map05_vanimo_scaleRev_orientDef_090.png"" style= ""width:200px""alt=""img"">
                            </div>
                        </div>",0.6275,"",0,"",NA,"","images/map05_vanimo_scaleRev_orientDef_090.png","happy",1,5,5,"vanimo","orientDef","scaleRev","090",NA,NA
"","","","","","html-slider-response",133,300991,"0.0-129.0","qe77kgf7f9",14,NA,"<div style=""width:500px;"">
                            <p style=""font-size:50px; font-weight:bold;""
                            >happy</p>
                            <div style=""width:240px; margin: auto;"">
                                <img src=""images/map15_GnBu_scaleRev_orientDef_090.png"" style= ""width:200px""alt=""img"">
                            </div>
                        </div>",0.7675,"",0,"",NA,"","images/map15_GnBu_scaleRev_orientDef_090.png","happy",1,15,15,"GnBu","orientDef","scaleRev","090",NA,NA
"","","","","","html-slider-response",134,303343,"0.0-130.0","qe77kgf7f9",14,NA,"<div style=""width:500px;"">
                            <p style=""font-size:50px; font-weight:bold;""
                            >happy</p>
                            <div style=""width:240px; margin: auto;"">
                                <img src=""images/map10_Blues_scaleDef_orientMir_000.png"" style= ""width:200px""alt=""img"">
                            </div>
                        </div>",0.645,"",0,"",NA,"","images/map10_Blues_scaleDef_orientMir_000.png","happy",1,10,10,"Blues","orientMir","scaleDef","000",NA,NA
"","","","","","html-slider-response",135,305192,"0.0-131.0","qe77kgf7f9",14,NA,"<div style=""width:500px;"">
                            <p style=""font-size:50px; font-weight:bold;""
                            >happy</p>
                            <div style=""width:240px; margin: auto;"">
                                <img src=""images/map05_turbo_scaleRev_orientMir_090.png"" style= ""width:200px""alt=""img"">
                            </div>
                        </div>",0.745,"",0,"",NA,"","images/map05_turbo_scaleRev_orientMir_090.png","happy",1,5,5,"turbo","orientMir","scaleRev","090",NA,NA
"","","","","","html-slider-response",136,307238,"0.0-132.0","qe77kgf7f9",14,NA,"<div style=""width:500px;"">
                            <p style=""font-size:50px; font-weight:bold;""
                            >happy</p>
                            <div style=""width:240px; margin: auto;"">
                                <img src=""images/map27_RdYlGn_scaleRev_orientDef_270.png"" style= ""width:200px""alt=""img"">
                            </div>
                        </div>",0.355,"",0,"",NA,"","images/map27_RdYlGn_scaleRev_orientDef_270.png","happy",1,27,27,"RdYlGn","orientDef","scaleRev","270",NA,NA
"","","","","","html-slider-response",137,309255,"0.0-133.0","qe77kgf7f9",14,NA,"<div style=""width:500px;"">
                            <p style=""font-size:50px; font-weight:bold;""
                            >happy</p>
                            <div style=""width:240px; margin: auto;"">
                                <img src=""images/map12_YlOrBr_scaleRev_orientMir_090.png"" style= ""width:200px""alt=""img"">
                            </div>
                        </div>",0.3825,"",0,"",NA,"","images/map12_YlOrBr_scaleRev_orientMir_090.png","happy",1,12,12,"YlOrBr","orientMir","scaleRev","090",NA,NA
"","","","","","html-slider-response",138,322168,"0.0-134.0","qe77kgf7f9",14,NA,"<div style=""width:500px;"">
                            <p style=""font-size:50px; font-weight:bold;""
                            >happy</p>
                            <div style=""width:240px; margin: auto;"">
                                <img src=""images/map07_plasma_scaleDef_orientDef_000.png"" style= ""width:200px""alt=""img"">
                            </div>
                        </div>",0.6625,"",0,"",NA,"","images/map07_plasma_scaleDef_orientDef_000.png","happy",1,7,7,"plasma","orientDef","scaleDef","000",NA,NA
"","","","","","html-slider-response",139,326402,"0.0-135.0","qe77kgf7f9",14,NA,"<div style=""width:500px;"">
                            <p style=""font-size:50px; font-weight:bold;""
                            >happy</p>
                            <div style=""width:240px; margin: auto;"">
                                <img src=""images/map10_Greys_scaleDef_orientDef_000.png"" style= ""width:200px""alt=""img"">
                            </div>
                        </div>",0.04,"",0,"",NA,"","images/map10_Greys_scaleDef_orientDef_000.png","happy",1,10,10,"Greys","orientDef","scaleDef","000",NA,NA
"","","","","","html-slider-response",140,328232,"0.0-136.0","qe77kgf7f9",14,NA,"<div style=""width:500px;"">
                            <p style=""font-size:50px; font-weight:bold;""
                            >happy</p>
                            <div style=""width:240px; margin: auto;"">
                                <img src=""images/map26_RdBu_scaleDef_orientMir_180.png"" style= ""width:200px""alt=""img"">
                            </div>
                        </div>",0.71,"",0,"",NA,"","images/map26_RdBu_scaleDef_orientMir_180.png","happy",1,26,26,"RdBu","orientMir","scaleDef","180",NA,NA
"","","","","","html-button-response",141,329848,"0.0-137.0","qe77kgf7f9",14,1101,"<p>You are doing great!<br></br> You are halway done with the current block. When you are ready to continue, click the 'Continue' button.</p>",0.5,"",NA,"",NA,"","","",NA,NA,NA,"","","","",NA,NA
"","","","","","html-slider-response",142,331396,"0.0-138.0","qe77kgf7f9",14,NA,"<div style=""width:500px;"">
                            <p style=""font-size:50px; font-weight:bold;""
                            >happy</p>
                            <div style=""width:240px; margin: auto;"">
                                <img src=""images/map07_inferno_scaleDef_orientDef_180.png"" style= ""width:200px""alt=""img"">
                            </div>
                        </div>",0.6925,"",0,"",NA,"","images/map07_inferno_scaleDef_orientDef_180.png","happy",1,7,7,"inferno","orientDef","scaleDef","180",NA,NA
"","","","","","html-slider-response",143,332572,"0.0-139.0","qe77kgf7f9",14,NA,"<div style=""width:500px;"">
                            <p style=""font-size:50px; font-weight:bold;""
                            >happy</p>
                            <div style=""width:240px; margin: auto;"">
                                <img src=""images/map12_YlOrRd_scaleRev_orientMir_270.png"" style= ""width:200px""alt=""img"">
                            </div>
                        </div>",0.6925,"",0,"",NA,"","images/map12_YlOrRd_scaleRev_orientMir_270.png","happy",1,12,12,"YlOrRd","orientMir","scaleRev","270",NA,NA
"","","","","","html-slider-response",144,333679,"0.0-140.0","qe77kgf7f9",14,NA,"<div style=""width:500px;"">
                            <p style=""font-size:50px; font-weight:bold;""
                            >happy</p>
                            <div style=""width:240px; margin: auto;"">
                                <img src=""images/map12_Oranges_scaleRev_orientDef_090.png"" style= ""width:200px""alt=""img"">
                            </div>
                        </div>",0.6925,"",0,"",NA,"","images/map12_Oranges_scaleRev_orientDef_090.png","happy",1,12,12,"Oranges","orientDef","scaleRev","090",NA,NA
"","","","","","html-slider-response",145,334721,"0.0-141.0","qe77kgf7f9",14,NA,"<div style=""width:500px;"">
                            <p style=""font-size:50px; font-weight:bold;""
                            >happy</p>
                            <div style=""width:240px; margin: auto;"">
                                <img src=""images/map26_BrBG_scaleRev_orientDef_090.png"" style= ""width:200px""alt=""img"">
                            </div>
                        </div>",0.6925,"",0,"",NA,"","images/map26_BrBG_scaleRev_orientDef_090.png","happy",1,26,26,"BrBG","orientDef","scaleRev","090",NA,NA
"","","","","","html-slider-response",146,336037,"0.0-142.0","qe77kgf7f9",14,NA,"<div style=""width:500px;"">
                            <p style=""font-size:50px; font-weight:bold;""
                            >happy</p>
                            <div style=""width:240px; margin: auto;"">
                                <img src=""images/map15_YlGnBu_scaleDef_orientMir_000.png"" style= ""width:200px""alt=""img"">
                            </div>
                        </div>",0.6925,"",0,"",NA,"","images/map15_YlGnBu_scaleDef_orientMir_000.png","happy",1,15,15,"YlGnBu","orientMir","scaleDef","000",NA,NA
"","","","","","html-slider-response",147,337444,"0.0-143.0","qe77kgf7f9",14,NA,"<div style=""width:500px;"">
                            <p style=""font-size:50px; font-weight:bold;""
                            >happy</p>
                            <div style=""width:240px; margin: auto;"">
                                <img src=""images/map27_coolwarm_scaleDef_orientMir_180.png"" style= ""width:200px""alt=""img"">
                            </div>
                        </div>",0.6925,"",0,"",NA,"","images/map27_coolwarm_scaleDef_orientMir_180.png","happy",1,27,27,"coolwarm","orientMir","scaleDef","180",NA,NA
"","","","","","html-slider-response",148,339078,"0.0-144.0","qe77kgf7f9",14,NA,"<div style=""width:500px;"">
                            <p style=""font-size:50px; font-weight:bold;""
                            >happy</p>
                            <div style=""width:240px; margin: auto;"">
                                <img src=""images/map12_Oranges_scaleDef_orientDef_000.png"" style= ""width:200px""alt=""img"">
                            </div>
                        </div>",0.565,"",0,"",NA,"","images/map12_Oranges_scaleDef_orientDef_000.png","happy",1,12,12,"Oranges","orientDef","scaleDef","000",NA,NA
"","","","","","html-slider-response",149,341267,"0.0-145.0","qe77kgf7f9",14,NA,"<div style=""width:500px;"">
                            <p style=""font-size:50px; font-weight:bold;""
                            >happy</p>
                            <div style=""width:240px; margin: auto;"">
                                <img src=""images/map10_Purples_scaleDef_orientDef_180.png"" style= ""width:200px""alt=""img"">
                            </div>
                        </div>",0.26,"",0,"",NA,"","images/map10_Purples_scaleDef_orientDef_180.png","happy",1,10,10,"Purples","orientDef","scaleDef","180",NA,NA
"","","","","","html-slider-response",150,351492,"0.0-146.0","qe77kgf7f9",14,NA,"<div style=""width:500px;"">
                            <p style=""font-size:50px; font-weight:bold;""
                            >happy</p>
                            <div style=""width:240px; margin: auto;"">
                                <img src=""images/map10_Blues_scaleRev_orientMir_090.png"" style= ""width:200px""alt=""img"">
                            </div>
                        </div>",0.36,"",0,"",NA,"","images/map10_Blues_scaleRev_orientMir_090.png","happy",1,10,10,"Blues","orientMir","scaleRev","090",NA,NA
"","","","","","html-slider-response",151,353317,"0.0-147.0","qe77kgf7f9",14,NA,"<div style=""width:500px;"">
                            <p style=""font-size:50px; font-weight:bold;""
                            >happy</p>
                            <div style=""width:240px; margin: auto;"">
                                <img src=""images/map15_GnBu_scaleDef_orientDef_000.png"" style= ""width:200px""alt=""img"">
                            </div>
                        </div>",0.7075,"",0,"",NA,"","images/map15_GnBu_scaleDef_orientDef_000.png","happy",1,15,15,"GnBu","orientDef","scaleDef","000",NA,NA
"","","","","","html-slider-response",152,355982,"0.0-148.0","qe77kgf7f9",14,NA,"<div style=""width:500px;"">
                            <p style=""font-size:50px; font-weight:bold;""
                            >happy</p>
                            <div style=""width:240px; margin: auto;"">
                                <img src=""images/map27_RdYlBu_scaleRev_orientDef_090.png"" style= ""width:200px""alt=""img"">
                            </div>
                        </div>",0.7675,"",0,"",NA,"","images/map27_RdYlBu_scaleRev_orientDef_090.png","happy",1,27,27,"RdYlBu","orientDef","scaleRev","090",NA,NA
"","","","","","html-slider-response",153,357637,"0.0-149.0","qe77kgf7f9",14,NA,"<div style=""width:500px;"">
                            <p style=""font-size:50px; font-weight:bold;""
                            >happy</p>
                            <div style=""width:240px; margin: auto;"">
                                <img src=""images/map27_RdYlBu_scaleDef_orientDef_000.png"" style= ""width:200px""alt=""img"">
                            </div>
                        </div>",0.7675,"",0,"",NA,"","images/map27_RdYlBu_scaleDef_orientDef_000.png","happy",1,27,27,"RdYlBu","orientDef","scaleDef","000",NA,NA
"","","","","","html-slider-response",154,359406,"0.0-150.0","qe77kgf7f9",14,NA,"<div style=""width:500px;"">
                            <p style=""font-size:50px; font-weight:bold;""
                            >happy</p>
                            <div style=""width:240px; margin: auto;"">
                                <img src=""images/map12_Reds_scaleRev_orientDef_270.png"" style= ""width:200px""alt=""img"">
                            </div>
                        </div>",0.2525,"",0,"",NA,"","images/map12_Reds_scaleRev_orientDef_270.png","happy",1,12,12,"Reds","orientDef","scaleRev","270",NA,NA
"","","","","","html-slider-response",155,362096,"0.0-151.0","qe77kgf7f9",14,NA,"<div style=""width:500px;"">
                            <p style=""font-size:50px; font-weight:bold;""
                            >happy</p>
                            <div style=""width:240px; margin: auto;"">
                                <img src=""images/map02_seismic_scaleDef_orientDef_180.png"" style= ""width:200px""alt=""img"">
                            </div>
                        </div>",0.695,"",0,"",NA,"","images/map02_seismic_scaleDef_orientDef_180.png","happy",1,2,2,"seismic","orientDef","scaleDef","180",NA,NA
"","","","","","html-slider-response",156,363761,"0.0-152.0","qe77kgf7f9",14,NA,"<div style=""width:500px;"">
                            <p style=""font-size:50px; font-weight:bold;""
                            >happy</p>
                            <div style=""width:240px; margin: auto;"">
                                <img src=""images/map05_gist_earth_scaleRev_orientDef_270.png"" style= ""width:200px""alt=""img"">
                            </div>
                        </div>",0.75,"",0,"",NA,"","images/map05_gist_earth_scaleRev_orientDef_270.png","happy",1,5,5,"gist","scaleRev","earth","orientDef",NA,NA
"","","","","","html-slider-response",157,366253,"0.0-153.0","qe77kgf7f9",14,NA,"<div style=""width:500px;"">
                            <p style=""font-size:50px; font-weight:bold;""
                            >happy</p>
                            <div style=""width:240px; margin: auto;"">
                                <img src=""images/map13_OrRd_scaleRev_orientDef_090.png"" style= ""width:200px""alt=""img"">
                            </div>
                        </div>",0.26,"",0,"",NA,"","images/map13_OrRd_scaleRev_orientDef_090.png","happy",1,13,13,"OrRd","orientDef","scaleRev","090",NA,NA
"","","","","","html-slider-response",158,368064,"0.0-154.0","qe77kgf7f9",14,NA,"<div style=""width:500px;"">
                            <p style=""font-size:50px; font-weight:bold;""
                            >happy</p>
                            <div style=""width:240px; margin: auto;"">
                                <img src=""images/map07_magma_scaleRev_orientMir_090.png"" style= ""width:200px""alt=""img"">
                            </div>
                        </div>",0.78,"",0,"",NA,"","images/map07_magma_scaleRev_orientMir_090.png","happy",1,7,7,"magma","orientMir","scaleRev","090",NA,NA
"","","","","","html-slider-response",159,369999,"0.0-155.0","qe77kgf7f9",14,NA,"<div style=""width:500px;"">
                            <p style=""font-size:50px; font-weight:bold;""
                            >happy</p>
                            <div style=""width:240px; margin: auto;"">
                                <img src=""images/map02_berlin_scaleRev_orientMir_090.png"" style= ""width:200px""alt=""img"">
                            </div>
                        </div>",0.24,"",0,"",NA,"","images/map02_berlin_scaleRev_orientMir_090.png","happy",1,2,2,"berlin","orientMir","scaleRev","090",NA,NA
"","","","","","html-slider-response",160,371855,"0.0-156.0","qe77kgf7f9",14,NA,"<div style=""width:500px;"">
                            <p style=""font-size:50px; font-weight:bold;""
                            >happy</p>
                            <div style=""width:240px; margin: auto;"">
                                <img src=""images/map07_cividis_scaleDef_orientMir_180.png"" style= ""width:200px""alt=""img"">
                            </div>
                        </div>",0.24,"",0,"",NA,"","images/map07_cividis_scaleDef_orientMir_180.png","happy",1,7,7,"cividis","orientMir","scaleDef","180",NA,NA
"","","","","","html-slider-response",161,374583,"0.0-157.0","qe77kgf7f9",14,NA,"<div style=""width:500px;"">
                            <p style=""font-size:50px; font-weight:bold;""
                            >happy</p>
                            <div style=""width:240px; margin: auto;"">
                                <img src=""images/map02_bwr_scaleDef_orientDef_000.png"" style= ""width:200px""alt=""img"">
                            </div>
                        </div>",0.675,"",0,"",NA,"","images/map02_bwr_scaleDef_orientDef_000.png","happy",1,2,2,"bwr","orientDef","scaleDef","000",NA,NA
"","","","","","html-slider-response",162,376293,"0.0-158.0","qe77kgf7f9",14,NA,"<div style=""width:500px;"">
                            <p style=""font-size:50px; font-weight:bold;""
                            >happy</p>
                            <div style=""width:240px; margin: auto;"">
                                <img src=""images/map05_turbo_scaleDef_orientMir_000.png"" style= ""width:200px""alt=""img"">
                            </div>
                        </div>",0.76,"",0,"",NA,"","images/map05_turbo_scaleDef_orientMir_000.png","happy",1,5,5,"turbo","orientMir","scaleDef","000",NA,NA
"","","","","","html-slider-response",163,377846,"0.0-159.0","qe77kgf7f9",14,NA,"<div style=""width:500px;"">
                            <p style=""font-size:50px; font-weight:bold;""
                            >happy</p>
