"success","timeout","failed_images","failed_audio","failed_video","trial_type","trial_index","time_elapsed","internal_node_id","subject_id","condition_num","rt","stimulus","response","question_order","slider_start","practiceTrial","practiceTrialNum","correct","image_path","concept","repetition","map_id","map_num","scale_name","orientation_code","mapping_code","rotation_code","ishihara_plate","correct_response"
"true","false","[]","[]","[]","preload",0,329,"0.0-0.0","c4mfz109tn",10,NA,"",NA,"",NA,"",NA,"","","",NA,NA,NA,"","","","",NA,NA
"","","","","","html-button-response",1,16697,"0.0-1.0","c4mfz109tn",10,16364,"Welcome to our experiment!<p>At the bottom of this screen, you will see a button that says ""Begin Experiment"".<br>Please only click that button when you are ready to complete the 30 minute experiment in one sitting.</p><p> Once you click that button, it will not be possible to restart the experiment.",0.5,"",NA,"",NA,"","","",NA,NA,NA,"","","","",NA,NA
"true","","","","","fullscreen",2,20840,"0.0-2.0","c4mfz109tn",10,3139,"",NA,"",NA,"",NA,"","","",NA,NA,NA,"","","","",NA,NA
"","","","","","survey-multi-select",3,55123,"0.0-3.0","c4mfz109tn",10,34276,"",NA,"[0]",NA,"",NA,"","","",NA,NA,NA,"","","","",NA,NA
"","","","","","html-button-response",4,59658,"0.0-4.0","c4mfz109tn",10,4533,"Welcome! <p> This experiment involves two parts: demographic information, followed by the experimental task.<p> It will take about 30 minutes to complete both parts.",0.5,"",NA,"",NA,"","","",NA,NA,NA,"","","","",NA,NA
"","","","","","survey-text",5,79750,"0.0-5.0","c4mfz109tn",10,20086,"",NA,"",NA,"",NA,"","","",NA,NA,NA,"","","","",NA,NA
"","","","","","html-slider-response",6,98410,"0.0-6.0","c4mfz109tn",10,18656,"<div style='text-align:left; font-size:20px; line-height:25px; width: 1000px;'>
                                During this experiment you will be asked to rate how much you associate maps with                    different concepts.<br> Below, you can see some examples of the maps you will be asked to rate. Above the maps
                    is the list of concepts.<br>You will be asked                    to rate how much you associate each map with each concept on a scale from 'not at all' to 'very much' like the
                    one below. <br><br>
                    Now, please look at the list of concepts and maps. For each concept, think about the map you associate 'very
                    much' with the concept.<br>                     When you see that map during the experiment, please rate it near the 'very much' endpoint of the
                    scale.<br>Now, please think about which map you associate 'not at all'                     with each concept. When you see that map during the experiment, please rate it near the 'not at all' endpoint
                    of the scale.<br>
                    Please use the full range of the scale. That is, if a map is somewhat associated with the concept, you would
                    click partway between the middle point and right side of the scale.                    You will be asked to rate each map for a given concept before moving on to the next concept.<br>Press the
                    'Continue' button for instructions on how to use the slider.                    <br>
                </div>

                <div style=""width: 500px; margin: 0 auto;"">
                    <!-- Centered text paragraphs -->
                    <div style=""text-align: center; width: 500px;"">
                        <p style=""font-size:25px; line-height:15px;"">
                            happy&nbsp;&nbsp;&nbsp;&nbsp;
                            fearful&nbsp;&nbsp;&nbsp;&nbsp;
                            disgust&nbsp;&nbsp;&nbsp;&nbsp;
                            sad&nbsp;&nbsp;&nbsp;&nbsp;
                            angry
                        </p>
                        <!-- <p style=""font-size:20px; line-height:15px;"">fearful</p>
                        <p style=""font-size:20px;line-height:15px;"">disgust</p>
                        <p style=""font-size:20px;line-height:15px;"">sad</p>
                        <p style=""font-size:20px;line-height:15px;"">angry</p> -->
                    </div>
            

                    <!-- Grid section -->
                   <div style=""display: flex; justify-content: center; padding-top: 15px;"">
                    <div style=""display: grid; grid-template-columns: repeat(10, 55px); grid-gap: 5px; width: auto;"">
                        <img src=""images/map13_BuPu_scaleDef_orientDef_180.png"" alt=""map"" style=""width: 100%;""><img src=""images/map15_YlGnBu_scaleDef_orientDef_000.png"" alt=""map"" style=""width: 100%;""><img src=""images/map12_YlOrBr_scaleRev_orientDef_090.png"" alt=""map"" style=""width: 100%;""><img src=""images/map05_inferno_scaleRev_orientMir_270.png"" alt=""map"" style=""width: 100%;""><img src=""images/map26_RdYlGn_scaleRev_orientMir_270.png"" alt=""map"" style=""width: 100%;""><img src=""images/map27_coolwarm_scaleRev_orientDef_270.png"" alt=""map"" style=""width: 100%;""><img src=""images/map10_Reds_scaleDef_orientMir_180.png"" alt=""map"" style=""width: 100%;""><img src=""images/map05_viridis_scaleRev_orientDef_270.png"" alt=""map"" style=""width: 100%;""><img src=""images/map15_PuBuGn_scaleRev_orientDef_270.png"" alt=""map"" style=""width: 100%;""><img src=""images/map15_YlGn_scaleRev_orientMir_270.png"" alt=""map"" style=""width: 100%;""><img src=""images/map07_magma_scaleDef_orientDef_000.png"" alt=""map"" style=""width: 100%;""><img src=""images/map23_BrBG_scaleDef_orientMir_000.png"" alt=""map"" style=""width: 100%;""><img src=""images/map12_YlOrRd_scaleDef_orientDef_180.png"" alt=""map"" style=""width: 100%;""><img src=""images/map02_berlin_scaleRev_orientDef_090.png"" alt=""map"" style=""width: 100%;""><img src=""images/map07_Purples_scaleDef_orientMir_180.png"" alt=""map"" style=""width: 100%;""><img src=""images/map26_RdYlBu_scaleDef_orientMir_000.png"" alt=""map"" style=""width: 100%;""><img src=""images/map10_Blues_scaleDef_orientDef_000.png"" alt=""map"" style=""width: 100%;""><img src=""images/map23_PRGn_scaleRev_orientDef_270.png"" alt=""map"" style=""width: 100%;""><img src=""images/map26_RdBu_scaleRev_orientDef_270.png"" alt=""map"" style=""width: 100%;""><img src=""images/map05_plasma_scaleDef_orientMir_000.png"" alt=""map"" style=""width: 100%;""><img src=""images/map27_bwr_scaleDef_orientMir_000.png"" alt=""map"" style=""width: 100%;""><img src=""images/map05_turbo_scaleRev_orientDef_090.png"" alt=""map"" style=""width: 100%;""><img src=""images/map02_gist_earth_scaleRev_orientMir_270.png"" alt=""map"" style=""width: 100%;""><img src=""images/map12_PuRd_scaleDef_orientMir_180.png"" alt=""map"" style=""width: 100%;""><img src=""images/map10_Oranges_scaleDef_orientMir_000.png"" alt=""map"" style=""width: 100%;""><img src=""images/map23_PiYG_scaleDef_orientDef_000.png"" alt=""map"" style=""width: 100%;""><img src=""images/map27_seismic_scaleRev_orientMir_270.png"" alt=""map"" style=""width: 100%;""><img src=""images/map02_vanimo_scaleRev_orientMir_090.png"" alt=""map"" style=""width: 100%;""><img src=""images/map15_BuGn_scaleDef_orientMir_000.png"" alt=""map"" style=""width: 100%;""><img src=""images/map02_managua_scaleDef_orientDef_180.png"" alt=""map"" style=""width: 100%;""><img src=""images/map07_cividis_scaleRev_orientDef_270.png"" alt=""map"" style=""width: 100%;""><img src=""images/map23_PuOr_scaleRev_orientMir_270.png"" alt=""map"" style=""width: 100%;""><img src=""images/map12_OrRd_scaleRev_orientMir_090.png"" alt=""map"" style=""width: 100%;""><img src=""images/map13_GnBu_scaleDef_orientMir_000.png"" alt=""map"" style=""width: 100%;""><img src=""images/map10_Greens_scaleDef_orientDef_180.png"" alt=""map"" style=""width: 100%;""><img src=""images/map07_Greys_scaleRev_orientMir_090.png"" alt=""map"" style=""width: 100%;""><img src=""images/map26_RdGy_scaleRev_orientDef_090.png"" alt=""map"" style=""width: 100%;""><img src=""images/map13_PuBu_scaleDef_orientMir_180.png"" alt=""map"" style=""width: 100%;""><img src=""images/map27_Spectral_scaleRev_orientDef_090.png"" alt=""map"" style=""width: 100%;""><img src=""images/map13_RdPu_scaleDef_orientDef_000.png"" alt=""map"" style=""width: 100%;"">
                    </div>
                </div>

                    <!-- Clear floats -->
                    <div style=""clear: both;""></div>
                </div>
                            ",0.5075,"",0,"true",NA,"","","",NA,NA,NA,"","","","",NA,NA
"","","","","","html-button-response",7,101843,"0.0-7.0","c4mfz109tn",10,3432,"<div style=""width:800px;""><p style=""text-align:left"">To move the slider, click and drag your cursor to the location of the scale where you would like to make your rating and then let go. When you let go of the slider, your response will be recorded and the next trial will begin. <br>
                    We are interested in your initial impressions of each map for the given concept, so please go with your first intuition. <br>
                    Before you begin the experiment, there will be four training trials for you to practice using the scale. <br>
                     When you are ready to start the training trials, please click ""Continue"".</p><br></div>",0.5,"",NA,"",NA,"","","",NA,NA,NA,"","","","",NA,NA
"","","","","","html-slider-response",8,108300,"0.0-8.0-0.0","c4mfz109tn",10,NA,"<div style=""width:500px;"">
                                    <p style=""font-size:25px;"">Please move the slider all the way to the <br> right endpoint of the scale</p>

                                    </div>
                                </div>",0,"",0,"true",0,"false","","",NA,NA,NA,"","","","",NA,NA
"","","","","","html-button-response",9,113326,"0.0-8.0-1.0","c4mfz109tn",10,4522,"<p align='center'><b>Not quite!</b> The slider was not placed near the instructed located. Click on 'Continue' to try again. </p>",0.5,"",NA,"",NA,"","","",NA,NA,NA,"","","","",NA,NA
"","","","","","html-slider-response",10,122237,"0.0-8.1-0.1","c4mfz109tn",10,NA,"<div style=""width:500px;"">
                                    <p style=""font-size:25px;"">Please move the slider all the way to the <br> right endpoint of the scale</p>

                                    </div>
                                </div>",1,"",0,"true",0,"true","","",NA,NA,NA,"","","","",NA,NA
"","","","","","html-button-response",11,124035,"0.0-8.1-1.1","c4mfz109tn",10,1295,"<p align='center'><b>Good job!</b> Click on 'Continue' to proceed.</p>",0.5,"",NA,"",NA,"","","",NA,NA,NA,"","","","",NA,NA
"","","","","","html-slider-response",12,125974,"0.0-9.0-0.0","c4mfz109tn",10,NA,"<div style=""width:500px;"">
                                    <p style=""font-size:25px;"">Please move the slider all the way to the <br> left endpoint of the scale</p>

                                    </div>
                                </div>",0,"",0,"true",1,"true","","",NA,NA,NA,"","","","",NA,NA
"","","","","","html-button-response",13,128072,"0.0-9.0-1.0","c4mfz109tn",10,1595,"<p align='center'><b>Good job!</b> Click on 'Continue' to proceed.</p>",0.5,"",NA,"",NA,"","","",NA,NA,NA,"","","","",NA,NA
"","","","","","html-slider-response",14,133791,"0.0-10.0-0.0","c4mfz109tn",10,NA,"<div style=""width:500px;"">
                                    <p style=""font-size:25px;"">Please move the slider halfway between the center and right endpoint of the scale</p>

                                    </div>
                                </div>",0.7675,"",0,"true",2,"true","","",NA,NA,NA,"","","","",NA,NA
"","","","","","html-button-response",15,134926,"0.0-10.0-1.0","c4mfz109tn",10,632,"<p align='center'><b>Good job!</b> Click on 'Continue' to proceed.</p>",0.5,"",NA,"",NA,"","","",NA,NA,NA,"","","","",NA,NA
"","","","","","html-slider-response",16,138587,"0.0-11.0-0.0","c4mfz109tn",10,NA,"<div style=""width:500px;"">
                                    <p style=""font-size:25px;"">Please move the slider halfway between the center and left endpoint of the scale</p>

                                    </div>
                                </div>",0.215,"",0,"true",3,"false","","",NA,NA,NA,"","","","",NA,NA
"","","","","","html-button-response",17,141614,"0.0-11.0-1.0","c4mfz109tn",10,2524,"<p align='center'><b>Not quite!</b> The slider was not placed near the instructed located. Click on 'Continue' to try again. </p>",0.5,"",NA,"",NA,"","","",NA,NA,NA,"","","","",NA,NA
"","","","","","html-slider-response",18,147396,"0.0-11.1-0.1","c4mfz109tn",10,NA,"<div style=""width:500px;"">
                                    <p style=""font-size:25px;"">Please move the slider halfway between the center and left endpoint of the scale</p>

                                    </div>
                                </div>",0.2525,"",0,"true",3,"true","","",NA,NA,NA,"","","","",NA,NA
"","","","","","html-button-response",19,149185,"0.0-11.1-1.1","c4mfz109tn",10,1285,"<p align='center'><b>Good job!</b> Click on 'Continue' to proceed.</p>",0.5,"",NA,"",NA,"","","",NA,NA,NA,"","","","",NA,NA
"","","","","","html-button-response",20,151113,"0.0-12.0","c4mfz109tn",10,1927,"<p>Great job! You've completed the practice trials. Now you will begin the main task.</p>",0.5,"",NA,"",NA,"","","",NA,NA,NA,"","","","",NA,NA
"","","","","","html-button-response",21,154855,"0.0-13.0","c4mfz109tn",10,3741,"<p>In this block of trials, you will be asked to rate how much you associate each map with:</p > <p style = 'font-size:150%; font-weight: bold'>happy</p><br></br>",0.5,"",NA,"",NA,"","","",NA,NA,NA,"","","","",NA,NA
"","","","","","html-slider-response",22,158663,"0.0-14.0","c4mfz109tn",10,NA,"<div style=""width:500px;"">
                            <p style=""font-size:50px; font-weight:bold;""
                            >happy</p>
                            <div style=""width:240px; margin: auto;"">
                                <img src=""images/map12_YlOrBr_scaleDef_orientDef_000.png"" style= ""width:200px""alt=""img"">
                            </div>
                        </div>",0.24,"",0,"",NA,"","images/map12_YlOrBr_scaleDef_orientDef_000.png","happy",1,12,12,"YlOrBr","orientDef","scaleDef","000",NA,NA
"","","","","","html-slider-response",23,160779,"0.0-15.0","c4mfz109tn",10,NA,"<div style=""width:500px;"">
                            <p style=""font-size:50px; font-weight:bold;""
                            >happy</p>
                            <div style=""width:240px; margin: auto;"">
                                <img src=""images/map07_magma_scaleDef_orientDef_000.png"" style= ""width:200px""alt=""img"">
                            </div>
                        </div>",0.68,"",0,"",NA,"","images/map07_magma_scaleDef_orientDef_000.png","happy",1,7,7,"magma","orientDef","scaleDef","000",NA,NA
"","","","","","html-slider-response",24,162536,"0.0-16.0","c4mfz109tn",10,NA,"<div style=""width:500px;"">
                            <p style=""font-size:50px; font-weight:bold;""
                            >happy</p>
                            <div style=""width:240px; margin: auto;"">
                                <img src=""images/map05_viridis_scaleRev_orientDef_270.png"" style= ""width:200px""alt=""img"">
                            </div>
                        </div>",0.7775,"",0,"",NA,"","images/map05_viridis_scaleRev_orientDef_270.png","happy",1,5,5,"viridis","orientDef","scaleRev","270",NA,NA
"","","","","","html-slider-response",25,164427,"0.0-17.0","c4mfz109tn",10,NA,"<div style=""width:500px;"">
                            <p style=""font-size:50px; font-weight:bold;""
                            >happy</p>
                            <div style=""width:240px; margin: auto;"">
                                <img src=""images/map12_YlOrBr_scaleRev_orientDef_090.png"" style= ""width:200px""alt=""img"">
                            </div>
                        </div>",0.285,"",0,"",NA,"","images/map12_YlOrBr_scaleRev_orientDef_090.png","happy",1,12,12,"YlOrBr","orientDef","scaleRev","090",NA,NA
"","","","","","html-slider-response",26,166350,"0.0-18.0","c4mfz109tn",10,NA,"<div style=""width:500px;"">
                            <p style=""font-size:50px; font-weight:bold;""
                            >happy</p>
                            <div style=""width:240px; margin: auto;"">
                                <img src=""images/map05_turbo_scaleDef_orientDef_000.png"" style= ""width:200px""alt=""img"">
                            </div>
                        </div>",0.61,"",0,"",NA,"","images/map05_turbo_scaleDef_orientDef_000.png","happy",1,5,5,"turbo","orientDef","scaleDef","000",NA,NA
"","","","","","html-slider-response",27,168487,"0.0-19.0","c4mfz109tn",10,NA,"<div style=""width:500px;"">
                            <p style=""font-size:50px; font-weight:bold;""
                            >happy</p>
                            <div style=""width:240px; margin: auto;"">
                                <img src=""images/map07_Purples_scaleRev_orientMir_270.png"" style= ""width:200px""alt=""img"">
                            </div>
                        </div>",0.4225,"",0,"",NA,"","images/map07_Purples_scaleRev_orientMir_270.png","happy",1,7,7,"Purples","orientMir","scaleRev","270",NA,NA
"","","","","","html-slider-response",28,170275,"0.0-20.0","c4mfz109tn",10,NA,"<div style=""width:500px;"">
                            <p style=""font-size:50px; font-weight:bold;""
                            >happy</p>
                            <div style=""width:240px; margin: auto;"">
                                <img src=""images/map13_RdPu_scaleDef_orientDef_000.png"" style= ""width:200px""alt=""img"">
                            </div>
                        </div>",0.835,"",0,"",NA,"","images/map13_RdPu_scaleDef_orientDef_000.png","happy",1,13,13,"RdPu","orientDef","scaleDef","000",NA,NA
"","","","","","html-slider-response",29,173271,"0.0-21.0","c4mfz109tn",10,NA,"<div style=""width:500px;"">
                            <p style=""font-size:50px; font-weight:bold;""
                            >happy</p>
                            <div style=""width:240px; margin: auto;"">
                                <img src=""images/map02_berlin_scaleDef_orientDef_000.png"" style= ""width:200px""alt=""img"">
                            </div>
                        </div>",0.265,"",0,"",NA,"","images/map02_berlin_scaleDef_orientDef_000.png","happy",1,2,2,"berlin","orientDef","scaleDef","000",NA,NA
"","","","","","html-slider-response",30,175450,"0.0-22.0","c4mfz109tn",10,NA,"<div style=""width:500px;"">
                            <p style=""font-size:50px; font-weight:bold;""
                            >happy</p>
                            <div style=""width:240px; margin: auto;"">
                                <img src=""images/map02_managua_scaleRev_orientDef_270.png"" style= ""width:200px""alt=""img"">
                            </div>
                        </div>",0.4125,"",0,"",NA,"","images/map02_managua_scaleRev_orientDef_270.png","happy",1,2,2,"managua","orientDef","scaleRev","270",NA,NA
"","","","","","html-slider-response",31,177305,"0.0-23.0","c4mfz109tn",10,NA,"<div style=""width:500px;"">
                            <p style=""font-size:50px; font-weight:bold;""
                            >happy</p>
                            <div style=""width:240px; margin: auto;"">
                                <img src=""images/map27_seismic_scaleRev_orientMir_270.png"" style= ""width:200px""alt=""img"">
                            </div>
                        </div>",0.845,"",0,"",NA,"","images/map27_seismic_scaleRev_orientMir_270.png","happy",1,27,27,"seismic","orientMir","scaleRev","270",NA,NA
"","","","","","html-slider-response",32,179373,"0.0-24.0","c4mfz109tn",10,NA,"<div style=""width:500px;"">
                            <p style=""font-size:50px; font-weight:bold;""
                            >happy</p>
                            <div style=""width:240px; margin: auto;"">
                                <img src=""images/map05_viridis_scaleDef_orientDef_180.png"" style= ""width:200px""alt=""img"">
                            </div>
                        </div>",0.6625,"",0,"",NA,"","images/map05_viridis_scaleDef_orientDef_180.png","happy",1,5,5,"viridis","orientDef","scaleDef","180",NA,NA
"","","","","","html-slider-response",33,182934,"0.0-25.0","c4mfz109tn",10,NA,"<div style=""width:500px;"">
                            <p style=""font-size:50px; font-weight:bold;""
                            >happy</p>
                            <div style=""width:240px; margin: auto;"">
                                <img src=""images/map13_GnBu_scaleDef_orientMir_000.png"" style= ""width:200px""alt=""img"">
                            </div>
                        </div>",0.4375,"",0,"",NA,"","images/map13_GnBu_scaleDef_orientMir_000.png","happy",1,13,13,"GnBu","orientMir","scaleDef","000",NA,NA
"","","","","","html-slider-response",34,185232,"0.0-26.0","c4mfz109tn",10,NA,"<div style=""width:500px;"">
                            <p style=""font-size:50px; font-weight:bold;""
                            >happy</p>
                            <div style=""width:240px; margin: auto;"">
                                <img src=""images/map07_Greys_scaleRev_orientMir_090.png"" style= ""width:200px""alt=""img"">
                            </div>
                        </div>",0.065,"",0,"",NA,"","images/map07_Greys_scaleRev_orientMir_090.png","happy",1,7,7,"Greys","orientMir","scaleRev","090",NA,NA
"","","","","","html-slider-response",35,187537,"0.0-27.0","c4mfz109tn",10,NA,"<div style=""width:500px;"">
                            <p style=""font-size:50px; font-weight:bold;""
                            >happy</p>
                            <div style=""width:240px; margin: auto;"">
                                <img src=""images/map10_Oranges_scaleRev_orientMir_090.png"" style= ""width:200px""alt=""img"">
                            </div>
                        </div>",0.15,"",0,"",NA,"","images/map10_Oranges_scaleRev_orientMir_090.png","happy",1,10,10,"Oranges","orientMir","scaleRev","090",NA,NA
"","","","","","html-slider-response",36,189966,"0.0-28.0","c4mfz109tn",10,NA,"<div style=""width:500px;"">
                            <p style=""font-size:50px; font-weight:bold;""
                            >happy</p>
                            <div style=""width:240px; margin: auto;"">
                                <img src=""images/map27_coolwarm_scaleDef_orientDef_180.png"" style= ""width:200px""alt=""img"">
                            </div>
                        </div>",0.405,"",0,"",NA,"","images/map27_coolwarm_scaleDef_orientDef_180.png","happy",1,27,27,"coolwarm","orientDef","scaleDef","180",NA,NA
"","","","","","html-slider-response",37,192041,"0.0-29.0","c4mfz109tn",10,NA,"<div style=""width:500px;"">
                            <p style=""font-size:50px; font-weight:bold;""
                            >happy</p>
                            <div style=""width:240px; margin: auto;"">
                                <img src=""images/map23_PiYG_scaleRev_orientDef_090.png"" style= ""width:200px""alt=""img"">
                            </div>
                        </div>",0.2675,"",0,"",NA,"","images/map23_PiYG_scaleRev_orientDef_090.png","happy",1,23,23,"PiYG","orientDef","scaleRev","090",NA,NA
"","","","","","html-slider-response",38,194142,"0.0-30.0","c4mfz109tn",10,NA,"<div style=""width:500px;"">
                            <p style=""font-size:50px; font-weight:bold;""
                            >happy</p>
                            <div style=""width:240px; margin: auto;"">
                                <img src=""images/map10_Greens_scaleRev_orientDef_270.png"" style= ""width:200px""alt=""img"">
                            </div>
                        </div>",0.445,"",0,"",NA,"","images/map10_Greens_scaleRev_orientDef_270.png","happy",1,10,10,"Greens","orientDef","scaleRev","270",NA,NA
"","","","","","html-slider-response",39,196095,"0.0-31.0","c4mfz109tn",10,NA,"<div style=""width:500px;"">
                            <p style=""font-size:50px; font-weight:bold;""
                            >happy</p>
                            <div style=""width:240px; margin: auto;"">
                                <img src=""images/map12_YlOrRd_scaleRev_orientDef_270.png"" style= ""width:200px""alt=""img"">
                            </div>
                        </div>",0.2725,"",0,"",NA,"","images/map12_YlOrRd_scaleRev_orientDef_270.png","happy",1,12,12,"YlOrRd","orientDef","scaleRev","270",NA,NA
"","","","","","html-slider-response",40,198007,"0.0-32.0","c4mfz109tn",10,NA,"<div style=""width:500px;"">
                            <p style=""font-size:50px; font-weight:bold;""
                            >happy</p>
                            <div style=""width:240px; margin: auto;"">
                                <img src=""images/map26_RdGy_scaleRev_orientDef_090.png"" style= ""width:200px""alt=""img"">
                            </div>
                        </div>",0.3875,"",0,"",NA,"","images/map26_RdGy_scaleRev_orientDef_090.png","happy",1,26,26,"RdGy","orientDef","scaleRev","090",NA,NA
"","","","","","html-slider-response",41,200076,"0.0-33.0","c4mfz109tn",10,NA,"<div style=""width:500px;"">
                            <p style=""font-size:50px; font-weight:bold;""
                            >happy</p>
                            <div style=""width:240px; margin: auto;"">
                                <img src=""images/map12_OrRd_scaleRev_orientMir_090.png"" style= ""width:200px""alt=""img"">
                            </div>
                        </div>",0.315,"",0,"",NA,"","images/map12_OrRd_scaleRev_orientMir_090.png","happy",1,12,12,"OrRd","orientMir","scaleRev","090",NA,NA
"","","","","","html-slider-response",42,201787,"0.0-34.0","c4mfz109tn",10,NA,"<div style=""width:500px;"">
                            <p style=""font-size:50px; font-weight:bold;""
                            >happy</p>
                            <div style=""width:240px; margin: auto;"">
                                <img src=""images/map13_PuBu_scaleDef_orientMir_180.png"" style= ""width:200px""alt=""img"">
                            </div>
                        </div>",0.385,"",0,"",NA,"","images/map13_PuBu_scaleDef_orientMir_180.png","happy",1,13,13,"PuBu","orientMir","scaleDef","180",NA,NA
"","","","","","html-slider-response",43,203958,"0.0-35.0","c4mfz109tn",10,NA,"<div style=""width:500px;"">
                            <p style=""font-size:50px; font-weight:bold;""
                            >happy</p>
                            <div style=""width:240px; margin: auto;"">
                                <img src=""images/map26_RdYlBu_scaleDef_orientMir_000.png"" style= ""width:200px""alt=""img"">
                            </div>
                        </div>",0.295,"",0,"",NA,"","images/map26_RdYlBu_scaleDef_orientMir_000.png","happy",1,26,26,"RdYlBu","orientMir","scaleDef","000",NA,NA
"","","","","","html-slider-response",44,205751,"0.0-36.0","c4mfz109tn",10,NA,"<div style=""width:500px;"">
                            <p style=""font-size:50px; font-weight:bold;""
                            >happy</p>
                            <div style=""width:240px; margin: auto;"">
                                <img src=""images/map15_BuGn_scaleDef_orientMir_000.png"" style= ""width:200px""alt=""img"">
                            </div>
                        </div>",0.455,"",0,"",NA,"","images/map15_BuGn_scaleDef_orientMir_000.png","happy",1,15,15,"BuGn","orientMir","scaleDef","000",NA,NA
"","","","","","html-slider-response",45,207498,"0.0-37.0","c4mfz109tn",10,NA,"<div style=""width:500px;"">
                            <p style=""font-size:50px; font-weight:bold;""
                            >happy</p>
                            <div style=""width:240px; margin: auto;"">
                                <img src=""images/map26_RdYlGn_scaleRev_orientMir_270.png"" style= ""width:200px""alt=""img"">
                            </div>
                        </div>",0.355,"",0,"",NA,"","images/map26_RdYlGn_scaleRev_orientMir_270.png","happy",1,26,26,"RdYlGn","orientMir","scaleRev","270",NA,NA
"","","","","","html-slider-response",46,210275,"0.0-38.0","c4mfz109tn",10,NA,"<div style=""width:500px;"">
                            <p style=""font-size:50px; font-weight:bold;""
                            >happy</p>
                            <div style=""width:240px; margin: auto;"">
                                <img src=""images/map02_gist_earth_scaleRev_orientMir_270.png"" style= ""width:200px""alt=""img"">
                            </div>
                        </div>",0.5675,"",0,"",NA,"","images/map02_gist_earth_scaleRev_orientMir_270.png","happy",1,2,2,"gist","scaleRev","earth","orientMir",NA,NA
"","","","","","html-slider-response",47,212224,"0.0-39.0","c4mfz109tn",10,NA,"<div style=""width:500px;"">
                            <p style=""font-size:50px; font-weight:bold;""
                            >happy</p>
                            <div style=""width:240px; margin: auto;"">
                                <img src=""images/map07_Purples_scaleDef_orientMir_180.png"" style= ""width:200px""alt=""img"">
                            </div>
                        </div>",0.6325,"",0,"",NA,"","images/map07_Purples_scaleDef_orientMir_180.png","happy",1,7,7,"Purples","orientMir","scaleDef","180",NA,NA
"","","","","","html-slider-response",48,214304,"0.0-40.0","c4mfz109tn",10,NA,"<div style=""width:500px;"">
                            <p style=""font-size:50px; font-weight:bold;""
                            >happy</p>
                            <div style=""width:240px; margin: auto;"">
                                <img src=""images/map02_vanimo_scaleDef_orientMir_000.png"" style= ""width:200px""alt=""img"">
                            </div>
                        </div>",0.0925,"",0,"",NA,"","images/map02_vanimo_scaleDef_orientMir_000.png","happy",1,2,2,"vanimo","orientMir","scaleDef","000",NA,NA
"","","","","","html-slider-response",49,216047,"0.0-41.0","c4mfz109tn",10,NA,"<div style=""width:500px;"">
                            <p style=""font-size:50px; font-weight:bold;""
                            >happy</p>
                            <div style=""width:240px; margin: auto;"">
                                <img src=""images/map26_RdYlGn_scaleDef_orientMir_180.png"" style= ""width:200px""alt=""img"">
                            </div>
                        </div>",0.435,"",0,"",NA,"","images/map26_RdYlGn_scaleDef_orientMir_180.png","happy",1,26,26,"RdYlGn","orientMir","scaleDef","180",NA,NA
"","","","","","html-slider-response",50,217717,"0.0-42.0","c4mfz109tn",10,NA,"<div style=""width:500px;"">
                            <p style=""font-size:50px; font-weight:bold;""
                            >happy</p>
                            <div style=""width:240px; margin: auto;"">
                                <img src=""images/map27_bwr_scaleRev_orientMir_090.png"" style= ""width:200px""alt=""img"">
                            </div>
                        </div>",0.825,"",0,"",NA,"","images/map27_bwr_scaleRev_orientMir_090.png","happy",1,27,27,"bwr","orientMir","scaleRev","090",NA,NA
"","","","","","html-slider-response",51,219642,"0.0-43.0","c4mfz109tn",10,NA,"<div style=""width:500px;"">
                            <p style=""font-size:50px; font-weight:bold;""
                            >happy</p>
                            <div style=""width:240px; margin: auto;"">
                                <img src=""images/map27_Spectral_scaleDef_orientDef_000.png"" style= ""width:200px""alt=""img"">
                            </div>
                        </div>",0.9075,"",0,"",NA,"","images/map27_Spectral_scaleDef_orientDef_000.png","happy",1,27,27,"Spectral","orientDef","scaleDef","000",NA,NA
"","","","","","html-slider-response",52,221521,"0.0-44.0","c4mfz109tn",10,NA,"<div style=""width:500px;"">
                            <p style=""font-size:50px; font-weight:bold;""
                            >happy</p>
                            <div style=""width:240px; margin: auto;"">
                                <img src=""images/map15_PuBuGn_scaleDef_orientDef_180.png"" style= ""width:200px""alt=""img"">
                            </div>
                        </div>",0.3125,"",0,"",NA,"","images/map15_PuBuGn_scaleDef_orientDef_180.png","happy",1,15,15,"PuBuGn","orientDef","scaleDef","180",NA,NA
"","","","","","html-slider-response",53,223296,"0.0-45.0","c4mfz109tn",10,NA,"<div style=""width:500px;"">
                            <p style=""font-size:50px; font-weight:bold;""
                            >happy</p>
                            <div style=""width:240px; margin: auto;"">
                                <img src=""images/map26_RdBu_scaleDef_orientDef_180.png"" style= ""width:200px""alt=""img"">
                            </div>
                        </div>",0.62,"",0,"",NA,"","images/map26_RdBu_scaleDef_orientDef_180.png","happy",1,26,26,"RdBu","orientDef","scaleDef","180",NA,NA
"","","","","","html-slider-response",54,225447,"0.0-46.0","c4mfz109tn",10,NA,"<div style=""width:500px;"">
                            <p style=""font-size:50px; font-weight:bold;""
                            >happy</p>
                            <div style=""width:240px; margin: auto;"">
                                <img src=""images/map05_plasma_scaleRev_orientMir_090.png"" style= ""width:200px""alt=""img"">
                            </div>
                        </div>",0.9375,"",0,"",NA,"","images/map05_plasma_scaleRev_orientMir_090.png","happy",1,5,5,"plasma","orientMir","scaleRev","090",NA,NA
"","","","","","html-slider-response",55,227696,"0.0-47.0","c4mfz109tn",10,NA,"<div style=""width:500px;"">
                            <p style=""font-size:50px; font-weight:bold;""
                            >happy</p>
                            <div style=""width:240px; margin: auto;"">
                                <img src=""images/map12_PuRd_scaleDef_orientMir_180.png"" style= ""width:200px""alt=""img"">
                            </div>
                        </div>",0.955,"",0,"",NA,"","images/map12_PuRd_scaleDef_orientMir_180.png","happy",1,12,12,"PuRd","orientMir","scaleDef","180",NA,NA
"","","","","","html-slider-response",56,229595,"0.0-48.0","c4mfz109tn",10,NA,"<div style=""width:500px;"">
                            <p style=""font-size:50px; font-weight:bold;""
                            >happy</p>
                            <div style=""width:240px; margin: auto;"">
                                <img src=""images/map26_RdBu_scaleRev_orientDef_270.png"" style= ""width:200px""alt=""img"">
                            </div>
                        </div>",0.365,"",0,"",NA,"","images/map26_RdBu_scaleRev_orientDef_270.png","happy",1,26,26,"RdBu","orientDef","scaleRev","270",NA,NA
"","","","","","html-slider-response",57,231613,"0.0-49.0","c4mfz109tn",10,NA,"<div style=""width:500px;"">
                            <p style=""font-size:50px; font-weight:bold;""
                            >happy</p>
                            <div style=""width:240px; margin: auto;"">
                                <img src=""images/map02_gist_earth_scaleDef_orientMir_180.png"" style= ""width:200px""alt=""img"">
                            </div>
                        </div>",0.575,"",0,"",NA,"","images/map02_gist_earth_scaleDef_orientMir_180.png","happy",1,2,2,"gist","scaleDef","earth","orientMir",NA,NA
"","","","","","html-slider-response",58,233360,"0.0-50.0","c4mfz109tn",10,NA,"<div style=""width:500px;"">
                            <p style=""font-size:50px; font-weight:bold;""
                            >happy</p>
                            <div style=""width:240px; margin: auto;"">
                                <img src=""images/map10_Oranges_scaleDef_orientMir_000.png"" style= ""width:200px""alt=""img"">
                            </div>
                        </div>",0.0975,"",0,"",NA,"","images/map10_Oranges_scaleDef_orientMir_000.png","happy",1,10,10,"Oranges","orientMir","scaleDef","000",NA,NA
"","","","","","html-slider-response",59,234966,"0.0-51.0","c4mfz109tn",10,NA,"<div style=""width:500px;"">
                            <p style=""font-size:50px; font-weight:bold;""
                            >happy</p>
                            <div style=""width:240px; margin: auto;"">
                                <img src=""images/map13_BuPu_scaleDef_orientDef_180.png"" style= ""width:200px""alt=""img"">
                            </div>
                        </div>",0.3825,"",0,"",NA,"","images/map13_BuPu_scaleDef_orientDef_180.png","happy",1,13,13,"BuPu","orientDef","scaleDef","180",NA,NA
"","","","","","html-slider-response",60,237148,"0.0-52.0","c4mfz109tn",10,NA,"<div style=""width:500px;"">
                            <p style=""font-size:50px; font-weight:bold;""
                            >happy</p>
                            <div style=""width:240px; margin: auto;"">
                                <img src=""images/map07_cividis_scaleDef_orientDef_180.png"" style= ""width:200px""alt=""img"">
                            </div>
                        </div>",0.285,"",0,"",NA,"","images/map07_cividis_scaleDef_orientDef_180.png","happy",1,7,7,"cividis","orientDef","scaleDef","180",NA,NA
"","","","","","html-slider-response",61,241829,"0.0-53.0","c4mfz109tn",10,NA,"<div style=""width:500px;"">
                            <p style=""font-size:50px; font-weight:bold;""
                            >happy</p>
                            <div style=""width:240px; margin: auto;"">
                                <img src=""images/map05_plasma_scaleDef_orientMir_000.png"" style= ""width:200px""alt=""img"">
                            </div>
                        </div>",0.5825,"",0,"",NA,"","images/map05_plasma_scaleDef_orientMir_000.png","happy",1,5,5,"plasma","orientMir","scaleDef","000",NA,NA
"","","","","","html-button-response",62,244936,"0.0-54.0","c4mfz109tn",10,2604,"<p>You are doing great!<br></br> You are halway done with the current block. When you are ready to continue, click the 'Continue' button.</p>",0.5,"",NA,"",NA,"","","",NA,NA,NA,"","","","",NA,NA
"","","","","","html-slider-response",63,246850,"0.0-55.0","c4mfz109tn",10,NA,"<div style=""width:500px;"">
                            <p style=""font-size:50px; font-weight:bold;""
                            >happy</p>
                            <div style=""width:240px; margin: auto;"">
                                <img src=""images/map05_turbo_scaleRev_orientDef_090.png"" style= ""width:200px""alt=""img"">
                            </div>
                        </div>",0.6375,"",0,"",NA,"","images/map05_turbo_scaleRev_orientDef_090.png","happy",1,5,5,"turbo","orientDef","scaleRev","090",NA,NA
"","","","","","html-slider-response",64,248357,"0.0-56.0","c4mfz109tn",10,NA,"<div style=""width:500px;"">
                            <p style=""font-size:50px; font-weight:bold;""
                            >happy</p>
                            <div style=""width:240px; margin: auto;"">
                                <img src=""images/map26_RdGy_scaleDef_orientDef_000.png"" style= ""width:200px""alt=""img"">
                            </div>
                        </div>",0.4275,"",0,"",NA,"","images/map26_RdGy_scaleDef_orientDef_000.png","happy",1,26,26,"RdGy","orientDef","scaleDef","000",NA,NA
"","","","","","html-slider-response",65,249646,"0.0-57.0","c4mfz109tn",10,NA,"<div style=""width:500px;"">
                            <p style=""font-size:50px; font-weight:bold;""
                            >happy</p>
                            <div style=""width:240px; margin: auto;"">
                                <img src=""images/map12_OrRd_scaleDef_orientMir_000.png"" style= ""width:200px""alt=""img"">
                            </div>
                        </div>",0.41,"",0,"",NA,"","images/map12_OrRd_scaleDef_orientMir_000.png","happy",1,12,12,"OrRd","orientMir","scaleDef","000",NA,NA
"","","","","","html-slider-response",66,250732,"0.0-58.0","c4mfz109tn",10,NA,"<div style=""width:500px;"">
                            <p style=""font-size:50px; font-weight:bold;""
                            >happy</p>
                            <div style=""width:240px; margin: auto;"">
                                <img src=""images/map23_PRGn_scaleRev_orientDef_270.png"" style= ""width:200px""alt=""img"">
                            </div>
                        </div>",0.3575,"",0,"",NA,"","images/map23_PRGn_scaleRev_orientDef_270.png","happy",1,23,23,"PRGn","orientDef","scaleRev","270",NA,NA
"","","","","","html-slider-response",67,251712,"0.0-59.0","c4mfz109tn",10,NA,"<div style=""width:500px;"">
                            <p style=""font-size:50px; font-weight:bold;""
                            >happy</p>
                            <div style=""width:240px; margin: auto;"">
                                <img src=""images/map27_bwr_scaleDef_orientMir_000.png"" style= ""width:200px""alt=""img"">
                            </div>
                        </div>",0.365,"",0,"",NA,"","images/map27_bwr_scaleDef_orientMir_000.png","happy",1,27,27,"bwr","orientMir","scaleDef","000",NA,NA
"","","","","","html-slider-response",68,252904,"0.0-60.0","c4mfz109tn",10,NA,"<div style=""width:500px;"">
                            <p style=""font-size:50px; font-weight:bold;""
                            >happy</p>
                            <div style=""width:240px; margin: auto;"">
                                <img src=""images/map23_PuOr_scaleDef_orientMir_180.png"" style= ""width:200px""alt=""img"">
                            </div>
                        </div>",0.565,"",0,"",NA,"","images/map23_PuOr_scaleDef_orientMir_180.png","happy",1,23,23,"PuOr","orientMir","scaleDef","180",NA,NA
"","","","","","html-slider-response",69,254237,"0.0-61.0","c4mfz109tn",10,NA,"<div style=""width:500px;"">
                            <p style=""font-size:50px; font-weight:bold;""
                            >happy</p>
                            <div style=""width:240px; margin: auto;"">
                                <img src=""images/map15_YlGnBu_scaleRev_orientDef_090.png"" style= ""width:200px""alt=""img"">
                            </div>
                        </div>",0.285,"",0,"",NA,"","images/map15_YlGnBu_scaleRev_orientDef_090.png","happy",1,15,15,"YlGnBu","orientDef","scaleRev","090",NA,NA
"","","","","","html-slider-response",70,255606,"0.0-62.0","c4mfz109tn",10,NA,"<div style=""width:500px;"">
                            <p style=""font-size:50px; font-weight:bold;""
                            >happy</p>
                            <div style=""width:240px; margin: auto;"">
                                <img src=""images/map15_PuBuGn_scaleRev_orientDef_270.png"" style= ""width:200px""alt=""img"">
                            </div>
                        </div>",0.3925,"",0,"",NA,"","images/map15_PuBuGn_scaleRev_orientDef_270.png","happy",1,15,15,"PuBuGn","orientDef","scaleRev","270",NA,NA
"","","","","","html-slider-response",71,257322,"0.0-63.0","c4mfz109tn",10,NA,"<div style=""width:500px;"">
                            <p style=""font-size:50px; font-weight:bold;""
                            >happy</p>
                            <div style=""width:240px; margin: auto;"">
                                <img src=""images/map12_YlOrRd_scaleDef_orientDef_180.png"" style= ""width:200px""alt=""img"">
                            </div>
                        </div>",0.3775,"",0,"",NA,"","images/map12_YlOrRd_scaleDef_orientDef_180.png","happy",1,12,12,"YlOrRd","orientDef","scaleDef","180",NA,NA
"","","","","","html-slider-response",72,258695,"0.0-64.0","c4mfz109tn",10,NA,"<div style=""width:500px;"">
                            <p style=""font-size:50px; font-weight:bold;""
                            >happy</p>
                            <div style=""width:240px; margin: auto;"">
                                <img src=""images/map02_managua_scaleDef_orientDef_180.png"" style= ""width:200px""alt=""img"">
                            </div>
                        </div>",0.6175,"",0,"",NA,"","images/map02_managua_scaleDef_orientDef_180.png","happy",1,2,2,"managua","orientDef","scaleDef","180",NA,NA
"","","","","","html-slider-response",73,259937,"0.0-65.0","c4mfz109tn",10,NA,"<div style=""width:500px;"">
                            <p style=""font-size:50px; font-weight:bold;""
                            >happy</p>
                            <div style=""width:240px; margin: auto;"">
                                <img src=""images/map15_YlGn_scaleRev_orientMir_270.png"" style= ""width:200px""alt=""img"">
                            </div>
                        </div>",0.3775,"",0,"",NA,"","images/map15_YlGn_scaleRev_orientMir_270.png","happy",1,15,15,"YlGn","orientMir","scaleRev","270",NA,NA
"","","","","","html-slider-response",74,261203,"0.0-66.0","c4mfz109tn",10,NA,"<div style=""width:500px;"">
                            <p style=""font-size:50px; font-weight:bold;""
                            >happy</p>
                            <div style=""width:240px; margin: auto;"">
                                <img src=""images/map02_vanimo_scaleRev_orientMir_090.png"" style= ""width:200px""alt=""img"">
                            </div>
                        </div>",0.39,"",0,"",NA,"","images/map02_vanimo_scaleRev_orientMir_090.png","happy",1,2,2,"vanimo","orientMir","scaleRev","090",NA,NA
"","","","","","html-slider-response",75,262563,"0.0-67.0","c4mfz109tn",10,NA,"<div style=""width:500px;"">
                            <p style=""font-size:50px; font-weight:bold;""
                            >happy</p>
                            <div style=""width:240px; margin: auto;"">
                                <img src=""images/map15_BuGn_scaleRev_orientMir_090.png"" style= ""width:200px""alt=""img"">
                            </div>
                        </div>",0.3825,"",0,"",NA,"","images/map15_BuGn_scaleRev_orientMir_090.png","happy",1,15,15,"BuGn","orientMir","scaleRev","090",NA,NA
"","","","","","html-slider-response",76,263906,"0.0-68.0","c4mfz109tn",10,NA,"<div style=""width:500px;"">
                            <p style=""font-size:50px; font-weight:bold;""
                            >happy</p>
                            <div style=""width:240px; margin: auto;"">
                                <img src=""images/map27_Spectral_scaleRev_orientDef_090.png"" style= ""width:200px""alt=""img"">
                            </div>
                        </div>",0.365,"",0,"",NA,"","images/map27_Spectral_scaleRev_orientDef_090.png","happy",1,27,27,"Spectral","orientDef","scaleRev","090",NA,NA
"","","","","","html-slider-response",77,265215,"0.0-69.0","c4mfz109tn",10,NA,"<div style=""width:500px;"">
                            <p style=""font-size:50px; font-weight:bold;""
                            >happy</p>
                            <div style=""width:240px; margin: auto;"">
                                <img src=""images/map12_PuRd_scaleRev_orientMir_270.png"" style= ""width:200px""alt=""img"">
                            </div>
                        </div>",0.68,"",0,"",NA,"","images/map12_PuRd_scaleRev_orientMir_270.png","happy",1,12,12,"PuRd","orientMir","scaleRev","270",NA,NA
"","","","","","html-slider-response",78,266714,"0.0-70.0","c4mfz109tn",10,NA,"<div style=""width:500px;"">
                            <p style=""font-size:50px; font-weight:bold;""
                            >happy</p>
                            <div style=""width:240px; margin: auto;"">
                                <img src=""images/map23_PuOr_scaleRev_orientMir_270.png"" style= ""width:200px""alt=""img"">
                            </div>
                        </div>",0.4275,"",0,"",NA,"","images/map23_PuOr_scaleRev_orientMir_270.png","happy",1,23,23,"PuOr","orientMir","scaleRev","270",NA,NA
"","","","","","html-slider-response",79,268287,"0.0-71.0","c4mfz109tn",10,NA,"<div style=""width:500px;"">
                            <p style=""font-size:50px; font-weight:bold;""
                            >happy</p>
                            <div style=""width:240px; margin: auto;"">
                                <img src=""images/map13_BuPu_scaleRev_orientDef_270.png"" style= ""width:200px""alt=""img"">
                            </div>
                        </div>",0.2125,"",0,"",NA,"","images/map13_BuPu_scaleRev_orientDef_270.png","happy",1,13,13,"BuPu","orientDef","scaleRev","270",NA,NA
"","","","","","html-slider-response",80,269700,"0.0-72.0","c4mfz109tn",10,NA,"<div style=""width:500px;"">
                            <p style=""font-size:50px; font-weight:bold;""
                            >happy</p>
                            <div style=""width:240px; margin: auto;"">
                                <img src=""images/map10_Greens_scaleDef_orientDef_180.png"" style= ""width:200px""alt=""img"">
                            </div>
                        </div>",0.3225,"",0,"",NA,"","images/map10_Greens_scaleDef_orientDef_180.png","happy",1,10,10,"Greens","orientDef","scaleDef","180",NA,NA
"","","","","","html-slider-response",81,271173,"0.0-73.0","c4mfz109tn",10,NA,"<div style=""width:500px;"">
                            <p style=""font-size:50px; font-weight:bold;""
                            >happy</p>
                            <div style=""width:240px; margin: auto;"">
                                <img src=""images/map07_cividis_scaleRev_orientDef_270.png"" style= ""width:200px""alt=""img"">
                            </div>
                        </div>",0.235,"",0,"",NA,"","images/map07_cividis_scaleRev_orientDef_270.png","happy",1,7,7,"cividis","orientDef","scaleRev","270",NA,NA
"","","","","","html-slider-response",82,272842,"0.0-74.0","c4mfz109tn",10,NA,"<div style=""width:500px;"">
                            <p style=""font-size:50px; font-weight:bold;""
                            >happy</p>
                            <div style=""width:240px; margin: auto;"">
                                <img src=""images/map27_seismic_scaleDef_orientMir_180.png"" style= ""width:200px""alt=""img"">
                            </div>
                        </div>",0.7675,"",0,"",NA,"","images/map27_seismic_scaleDef_orientMir_180.png","happy",1,27,27,"seismic","orientMir","scaleDef","180",NA,NA
"","","","","","html-slider-response",83,274229,"0.0-75.0","c4mfz109tn",10,NA,"<div style=""width:500px;"">
                            <p style=""font-size:50px; font-weight:bold;""
                            >happy</p>
                            <div style=""width:240px; margin: auto;"">
                                <img src=""images/map13_PuBu_scaleRev_orientMir_270.png"" style= ""width:200px""alt=""img"">
                            </div>
                        </div>",0.44,"",0,"",NA,"","images/map13_PuBu_scaleRev_orientMir_270.png","happy",1,13,13,"PuBu","orientMir","scaleRev","270",NA,NA
"","","","","","html-slider-response",84,275789,"0.0-76.0","c4mfz109tn",10,NA,"<div style=""width:500px;"">
                            <p style=""font-size:50px; font-weight:bold;""
                            >happy</p>
                            <div style=""width:240px; margin: auto;"">
                                <img src=""images/map10_Blues_scaleDef_orientDef_000.png"" style= ""width:200px""alt=""img"">
                            </div>
                        </div>",0.1925,"",0,"",NA,"","images/map10_Blues_scaleDef_orientDef_000.png","happy",1,10,10,"Blues","orientDef","scaleDef","000",NA,NA
"","","","","","html-slider-response",85,277043,"0.0-77.0","c4mfz109tn",10,NA,"<div style=""width:500px;"">
                            <p style=""font-size:50px; font-weight:bold;""
                            >happy</p>
                            <div style=""width:240px; margin: auto;"">
                                <img src=""images/map13_GnBu_scaleRev_orientMir_090.png"" style= ""width:200px""alt=""img"">
                            </div>
                        </div>",0.135,"",0,"",NA,"","images/map13_GnBu_scaleRev_orientMir_090.png","happy",1,13,13,"GnBu","orientMir","scaleRev","090",NA,NA
"","","","","","html-slider-response",86,278543,"0.0-78.0","c4mfz109tn",10,NA,"<div style=""width:500px;"">
                            <p style=""font-size:50px; font-weight:bold;""
                            >happy</p>
                            <div style=""width:240px; margin: auto;"">
                                <img src=""images/map23_PiYG_scaleDef_orientDef_000.png"" style= ""width:200px""alt=""img"">
                            </div>
                        </div>",0.38,"",0,"",NA,"","images/map23_PiYG_scaleDef_orientDef_000.png","happy",1,23,23,"PiYG","orientDef","scaleDef","000",NA,NA
"","","","","","html-slider-response",87,280038,"0.0-79.0","c4mfz109tn",10,NA,"<div style=""width:500px;"">
                            <p style=""font-size:50px; font-weight:bold;""
                            >happy</p>
                            <div style=""width:240px; margin: auto;"">
                                <img src=""images/map10_Reds_scaleDef_orientMir_180.png"" style= ""width:200px""alt=""img"">
                            </div>
                        </div>",0.375,"",0,"",NA,"","images/map10_Reds_scaleDef_orientMir_180.png","happy",1,10,10,"Reds","orientMir","scaleDef","180",NA,NA
"","","","","","html-slider-response",88,281467,"0.0-80.0","c4mfz109tn",10,NA,"<div style=""width:500px;"">
                            <p style=""font-size:50px; font-weight:bold;""
                            >happy</p>
                            <div style=""width:240px; margin: auto;"">
                                <img src=""images/map10_Blues_scaleRev_orientDef_090.png"" style= ""width:200px""alt=""img"">
                            </div>
                        </div>",0.335,"",0,"",NA,"","images/map10_Blues_scaleRev_orientDef_090.png","happy",1,10,10,"Blues","orientDef","scaleRev","090",NA,NA
"","","","","","html-slider-response",89,283054,"0.0-81.0","c4mfz109tn",10,NA,"<div style=""width:500px;"">
                            <p style=""font-size:50px; font-weight:bold;""
                            >happy</p>
                            <div style=""width:240px; margin: auto;"">
                                <img src=""images/map23_BrBG_scaleDef_orientMir_000.png"" style= ""width:200px""alt=""img"">
                            </div>
                        </div>",0.4075,"",0,"",NA,"","images/map23_BrBG_scaleDef_orientMir_000.png","happy",1,23,23,"BrBG","orientMir","scaleDef","000",NA,NA
"","","","","","html-slider-response",90,284621,"0.0-82.0","c4mfz109tn",10,NA,"<div style=""width:500px;"">
                            <p style=""font-size:50px; font-weight:bold;""
                            >happy</p>
                            <div style=""width:240px; margin: auto;"">
                                <img src=""images/map15_YlGn_scaleDef_orientMir_180.png"" style= ""width:200px""alt=""img"">
                            </div>
                        </div>",0.47,"",0,"",NA,"","images/map15_YlGn_scaleDef_orientMir_180.png","happy",1,15,15,"YlGn","orientMir","scaleDef","180",NA,NA
"","","","","","html-slider-response",91,286052,"0.0-83.0","c4mfz109tn",10,NA,"<div style=""width:500px;"">
                            <p style=""font-size:50px; font-weight:bold;""
                            >happy</p>
                            <div style=""width:240px; margin: auto;"">
                                <img src=""images/map23_BrBG_scaleRev_orientMir_090.png"" style= ""width:200px""alt=""img"">
                            </div>
                        </div>",0.285,"",0,"",NA,"","images/map23_BrBG_scaleRev_orientMir_090.png","happy",1,23,23,"BrBG","orientMir","scaleRev","090",NA,NA
"","","","","","html-slider-response",92,287352,"0.0-84.0","c4mfz109tn",10,NA,"<div style=""width:500px;"">
                            <p style=""font-size:50px; font-weight:bold;""
                            >happy</p>
                            <div style=""width:240px; margin: auto;"">
                                <img src=""images/map05_inferno_scaleRev_orientMir_270.png"" style= ""width:200px""alt=""img"">
                            </div>
                        </div>",0.375,"",0,"",NA,"","images/map05_inferno_scaleRev_orientMir_270.png","happy",1,5,5,"inferno","orientMir","scaleRev","270",NA,NA
"","","","","","html-slider-response",93,288767,"0.0-85.0","c4mfz109tn",10,NA,"<div style=""width:500px;"">
                            <p style=""font-size:50px; font-weight:bold;""
                            >happy</p>
                            <div style=""width:240px; margin: auto;"">
                                <img src=""images/map23_PRGn_scaleDef_orientDef_180.png"" style= ""width:200px""alt=""img"">
                            </div>
                        </div>",0.335,"",0,"",NA,"","images/map23_PRGn_scaleDef_orientDef_180.png","happy",1,23,23,"PRGn","orientDef","scaleDef","180",NA,NA
"","","","","","html-slider-response",94,290334,"0.0-86.0","c4mfz109tn",10,NA,"<div style=""width:500px;"">
                            <p style=""font-size:50px; font-weight:bold;""
                            >happy</p>
                            <div style=""width:240px; margin: auto;"">
                                <img src=""images/map15_YlGnBu_scaleDef_orientDef_000.png"" style= ""width:200px""alt=""img"">
                            </div>
                        </div>",0.41,"",0,"",NA,"","images/map15_YlGnBu_scaleDef_orientDef_000.png","happy",1,15,15,"YlGnBu","orientDef","scaleDef","000",NA,NA
"","","","","","html-slider-response",95,291753,"0.0-87.0","c4mfz109tn",10,NA,"<div style=""width:500px;"">
                            <p style=""font-size:50px; font-weight:bold;""
                            >happy</p>
                            <div style=""width:240px; margin: auto;"">
                                <img src=""images/map02_berlin_scaleRev_orientDef_090.png"" style= ""width:200px""alt=""img"">
                            </div>
                        </div>",0.425,"",0,"",NA,"","images/map02_berlin_scaleRev_orientDef_090.png","happy",1,2,2,"berlin","orientDef","scaleRev","090",NA,NA
"","","","","","html-slider-response",96,293076,"0.0-88.0","c4mfz109tn",10,NA,"<div style=""width:500px;"">
                            <p style=""font-size:50px; font-weight:bold;""
                            >happy</p>
                            <div style=""width:240px; margin: auto;"">
                                <img src=""images/map10_Reds_scaleRev_orientMir_270.png"" style= ""width:200px""alt=""img"">
                            </div>
                        </div>",0.3825,"",0,"",NA,"","images/map10_Reds_scaleRev_orientMir_270.png","happy",1,10,10,"Reds","orientMir","scaleRev","270",NA,NA
"","","","","","html-slider-response",97,294839,"0.0-89.0","c4mfz109tn",10,NA,"<div style=""width:500px;"">
                            <p style=""font-size:50px; font-weight:bold;""
                            >happy</p>
                            <div style=""width:240px; margin: auto;"">
                                <img src=""images/map13_RdPu_scaleRev_orientDef_090.png"" style= ""width:200px""alt=""img"">
                            </div>
                        </div>",0.9125,"",0,"",NA,"","images/map13_RdPu_scaleRev_orientDef_090.png","happy",1,13,13,"RdPu","orientDef","scaleRev","090",NA,NA
"","","","","","html-slider-response",98,297705,"0.0-90.0","c4mfz109tn",10,NA,"<div style=""width:500px;"">
                            <p style=""font-size:50px; font-weight:bold;""
                            >happy</p>
                            <div style=""width:240px; margin: auto;"">
                                <img src=""images/map07_magma_scaleRev_orientDef_090.png"" style= ""width:200px""alt=""img"">
                            </div>
                        </div>",0.835,"",0,"",NA,"","images/map07_magma_scaleRev_orientDef_090.png","happy",1,7,7,"magma","orientDef","scaleRev","090",NA,NA
"","","","","","html-slider-response",99,299574,"0.0-91.0","c4mfz109tn",10,NA,"<div style=""width:500px;"">
                            <p style=""font-size:50px; font-weight:bold;""
                            >happy</p>
                            <div style=""width:240px; margin: auto;"">
                                <img src=""images/map26_RdYlBu_scaleRev_orientMir_090.png"" style= ""width:200px""alt=""img"">
                            </div>
                        </div>",0.3875,"",0,"",NA,"","images/map26_RdYlBu_scaleRev_orientMir_090.png","happy",1,26,26,"RdYlBu","orientMir","scaleRev","090",NA,NA
"","","","","","html-slider-response",100,301346,"0.0-92.0","c4mfz109tn",10,NA,"<div style=""width:500px;"">
                            <p style=""font-size:50px; font-weight:bold;""
                            >happy</p>
                            <div style=""width:240px; margin: auto;"">
                                <img src=""images/map27_coolwarm_scaleRev_orientDef_270.png"" style= ""width:200px""alt=""img"">
                            </div>
                        </div>",0.42,"",0,"",NA,"","images/map27_coolwarm_scaleRev_orientDef_270.png","happy",1,27,27,"coolwarm","orientDef","scaleRev","270",NA,NA
"","","","","","html-slider-response",101,304180,"0.0-93.0","c4mfz109tn",10,NA,"<div style=""width:500px;"">
                            <p style=""font-size:50px; font-weight:bold;""
                            >happy</p>
                            <div style=""width:240px; margin: auto;"">
                                <img src=""images/map07_Greys_scaleDef_orientMir_000.png"" style= ""width:200px""alt=""img"">
                            </div>
                        </div>",0.1,"",0,"",NA,"","images/map07_Greys_scaleDef_orientMir_000.png","happy",1,7,7,"Greys","orientMir","scaleDef","000",NA,NA
"","","","","","html-slider-response",102,305739,"0.0-94.0","c4mfz109tn",10,NA,"<div style=""width:500px;"">
                            <p style=""font-size:50px; font-weight:bold;""
                            >happy</p>
                            <div style=""width:240px; margin: auto;"">
                                <img src=""images/map05_inferno_scaleDef_orientMir_180.png"" style= ""width:200px""alt=""img"">
                            </div>
                        </div>",0.395,"",0,"",NA,"","images/map05_inferno_scaleDef_orientMir_180.png","happy",1,5,5,"inferno","orientMir","scaleDef","180",NA,NA
"","","","","","html-button-response",103,307682,"0.0-95.0","c4mfz109tn",10,1442,"<p>Great Job! You've finished block 1.<br></br> You have 4 block(s) left to go.<br></br></p>",0.5,"",NA,"",NA,"","","",NA,NA,NA,"","","","",NA,NA
"","","","","","html-button-response",104,314382,"0.0-96.0","c4mfz109tn",10,6698,"<p>In this block of trials, you will be asked to rate how much you associate each map with:</p > <p style = 'font-size:150%; font-weight: bold'>fearful</p><br></br>",0.5,"",NA,"",NA,"","","",NA,NA,NA,"","","","",NA,NA
"","","","","","html-slider-response",105,315972,"0.0-97.0","c4mfz109tn",10,NA,"<div style=""width:500px;"">
                            <p style=""font-size:50px; font-weight:bold;""
                            >fearful</p>
                            <div style=""width:240px; margin: auto;"">
                                <img src=""images/map10_Oranges_scaleRev_orientMir_090.png"" style= ""width:200px""alt=""img"">
                            </div>
                        </div>",0.705,"",0,"",NA,"","images/map10_Oranges_scaleRev_orientMir_090.png","fearful",1,10,10,"Oranges","orientMir","scaleRev","090",NA,NA
"","","","","","html-slider-response",106,317796,"0.0-98.0","c4mfz109tn",10,NA,"<div style=""width:500px;"">
                            <p style=""font-size:50px; font-weight:bold;""
                            >fearful</p>
                            <div style=""width:240px; margin: auto;"">
                                <img src=""images/map13_BuPu_scaleDef_orientDef_180.png"" style= ""width:200px""alt=""img"">
                            </div>
                        </div>",0.715,"",0,"",NA,"","images/map13_BuPu_scaleDef_orientDef_180.png","fearful",1,13,13,"BuPu","orientDef","scaleDef","180",NA,NA
"","","","","","html-slider-response",107,319429,"0.0-99.0","c4mfz109tn",10,NA,"<div style=""width:500px;"">
                            <p style=""font-size:50px; font-weight:bold;""
                            >fearful</p>
                            <div style=""width:240px; margin: auto;"">
                                <img src=""images/map26_RdGy_scaleRev_orientDef_090.png"" style= ""width:200px""alt=""img"">
                            </div>
                        </div>",0.9975,"",0,"",NA,"","images/map26_RdGy_scaleRev_orientDef_090.png","fearful",1,26,26,"RdGy","orientDef","scaleRev","090",NA,NA
"","","","","","html-slider-response",108,321617,"0.0-100.0","c4mfz109tn",10,NA,"<div style=""width:500px;"">
                            <p style=""font-size:50px; font-weight:bold;""
                            >fearful</p>
                            <div style=""width:240px; margin: auto;"">
                                <img src=""images/map12_YlOrBr_scaleRev_orientDef_090.png"" style= ""width:200px""alt=""img"">
                            </div>
                        </div>",0.3825,"",0,"",NA,"","images/map12_YlOrBr_scaleRev_orientDef_090.png","fearful",1,12,12,"YlOrBr","orientDef","scaleRev","090",NA,NA
"","","","","","html-slider-response",109,323881,"0.0-101.0","c4mfz109tn",10,NA,"<div style=""width:500px;"">
                            <p style=""font-size:50px; font-weight:bold;""
                            >fearful</p>
                            <div style=""width:240px; margin: auto;"">
                                <img src=""images/map23_PiYG_scaleRev_orientDef_090.png"" style= ""width:200px""alt=""img"">
                            </div>
                        </div>",0.5025,"",0,"",NA,"","images/map23_PiYG_scaleRev_orientDef_090.png","fearful",1,23,23,"PiYG","orientDef","scaleRev","090",NA,NA
"","","","","","html-slider-response",110,325605,"0.0-102.0","c4mfz109tn",10,NA,"<div style=""width:500px;"">
                            <p style=""font-size:50px; font-weight:bold;""
                            >fearful</p>
                            <div style=""width:240px; margin: auto;"">
                                <img src=""images/map10_Greens_scaleDef_orientDef_180.png"" style= ""width:200px""alt=""img"">
                            </div>
                        </div>",0.445,"",0,"",NA,"","images/map10_Greens_scaleDef_orientDef_180.png","fearful",1,10,10,"Greens","orientDef","scaleDef","180",NA,NA
"","","","","","html-slider-response",111,327005,"0.0-103.0","c4mfz109tn",10,NA,"<div style=""width:500px;"">
                            <p style=""font-size:50px; font-weight:bold;""
                            >fearful</p>
                            <div style=""width:240px; margin: auto;"">
                                <img src=""images/map12_OrRd_scaleRev_orientMir_090.png"" style= ""width:200px""alt=""img"">
                            </div>
                        </div>",0.62,"",0,"",NA,"","images/map12_OrRd_scaleRev_orientMir_090.png","fearful",1,12,12,"OrRd","orientMir","scaleRev","090",NA,NA
"","","","","","html-slider-response",112,328641,"0.0-104.0","c4mfz109tn",10,NA,"<div style=""width:500px;"">
                            <p style=""font-size:50px; font-weight:bold;""
                            >fearful</p>
                            <div style=""width:240px; margin: auto;"">
                                <img src=""images/map05_plasma_scaleDef_orientMir_000.png"" style= ""width:200px""alt=""img"">
                            </div>
                        </div>",0.0675,"",0,"",NA,"","images/map05_plasma_scaleDef_orientMir_000.png","fearful",1,5,5,"plasma","orientMir","scaleDef","000",NA,NA
"","","","","","html-slider-response",113,330304,"0.0-105.0","c4mfz109tn",10,NA,"<div style=""width:500px;"">
                            <p style=""font-size:50px; font-weight:bold;""
                            >fearful</p>
                            <div style=""width:240px; margin: auto;"">
                                <img src=""images/map10_Blues_scaleRev_orientDef_090.png"" style= ""width:200px""alt=""img"">
                            </div>
                        </div>",0.2775,"",0,"",NA,"","images/map10_Blues_scaleRev_orientDef_090.png","fearful",1,10,10,"Blues","orientDef","scaleRev","090",NA,NA
"","","","","","html-slider-response",114,331726,"0.0-106.0","c4mfz109tn",10,NA,"<div style=""width:500px;"">
                            <p style=""font-size:50px; font-weight:bold;""
                            >fearful</p>
                            <div style=""width:240px; margin: auto;"">
                                <img src=""images/map26_RdYlGn_scaleRev_orientMir_270.png"" style= ""width:200px""alt=""img"">
                            </div>
                        </div>",0.58,"",0,"",NA,"","images/map26_RdYlGn_scaleRev_orientMir_270.png","fearful",1,26,26,"RdYlGn","orientMir","scaleRev","270",NA,NA
"","","","","","html-slider-response",115,333593,"0.0-107.0","c4mfz109tn",10,NA,"<div style=""width:500px;"">
                            <p style=""font-size:50px; font-weight:bold;""
                            >fearful</p>
                            <div style=""width:240px; margin: auto;"">
                                <img src=""images/map05_viridis_scaleRev_orientDef_270.png"" style= ""width:200px""alt=""img"">
                            </div>
                        </div>",0.2525,"",0,"",NA,"","images/map05_viridis_scaleRev_orientDef_270.png","fearful",1,5,5,"viridis","orientDef","scaleRev","270",NA,NA
"","","","","","html-slider-response",116,334953,"0.0-108.0","c4mfz109tn",10,NA,"<div style=""width:500px;"">
                            <p style=""font-size:50px; font-weight:bold;""
                            >fearful</p>
                            <div style=""width:240px; margin: auto;"">
                                <img src=""images/map27_bwr_scaleDef_orientMir_000.png"" style= ""width:200px""alt=""img"">
                            </div>
                        </div>",0.315,"",0,"",NA,"","images/map27_bwr_scaleDef_orientMir_000.png","fearful",1,27,27,"bwr","orientMir","scaleDef","000",NA,NA
"","","","","","html-slider-response",117,336331,"0.0-109.0","c4mfz109tn",10,NA,"<div style=""width:500px;"">
                            <p style=""font-size:50px; font-weight:bold;""
                            >fearful</p>
                            <div style=""width:240px; margin: auto;"">
                                <img src=""images/map27_Spectral_scaleRev_orientDef_090.png"" style= ""width:200px""alt=""img"">
                            </div>
                        </div>",0.395,"",0,"",NA,"","images/map27_Spectral_scaleRev_orientDef_090.png","fearful",1,27,27,"Spectral","orientDef","scaleRev","090",NA,NA
"","","","","","html-slider-response",118,337838,"0.0-110.0","c4mfz109tn",10,NA,"<div style=""width:500px;"">
                            <p style=""font-size:50px; font-weight:bold;""
                            >fearful</p>
                            <div style=""width:240px; margin: auto;"">
                                <img src=""images/map07_magma_scaleDef_orientDef_000.png"" style= ""width:200px""alt=""img"">
                            </div>
                        </div>",0.1425,"",0,"",NA,"","images/map07_magma_scaleDef_orientDef_000.png","fearful",1,7,7,"magma","orientDef","scaleDef","000",NA,NA
"","","","","","html-slider-response",119,339276,"0.0-111.0","c4mfz109tn",10,NA,"<div style=""width:500px;"">
                            <p style=""font-size:50px; font-weight:bold;""
                            >fearful</p>
                            <div style=""width:240px; margin: auto;"">
                                <img src=""images/map02_managua_scaleDef_orientDef_180.png"" style= ""width:200px""alt=""img"">
                            </div>
                        </div>",0.335,"",0,"",NA,"","images/map02_managua_scaleDef_orientDef_180.png","fearful",1,2,2,"managua","orientDef","scaleDef","180",NA,NA
"","","","","","html-slider-response",120,340608,"0.0-112.0","c4mfz109tn",10,NA,"<div style=""width:500px;"">
                            <p style=""font-size:50px; font-weight:bold;""
                            >fearful</p>
                            <div style=""width:240px; margin: auto;"">
                                <img src=""images/map23_BrBG_scaleDef_orientMir_000.png"" style= ""width:200px""alt=""img"">
                            </div>
                        </div>",0.34,"",0,"",NA,"","images/map23_BrBG_scaleDef_orientMir_000.png","fearful",1,23,23,"BrBG","orientMir","scaleDef","000",NA,NA
"","","","","","html-slider-response",121,341974,"0.0-113.0","c4mfz109tn",10,NA,"<div style=""width:500px;"">
                            <p style=""font-size:50px; font-weight:bold;""
                            >fearful</p>
                            <div style=""width:240px; margin: auto;"">
                                <img src=""images/map26_RdYlBu_scaleRev_orientMir_090.png"" style= ""width:200px""alt=""img"">
                            </div>
                        </div>",0.2375,"",0,"",NA,"","images/map26_RdYlBu_scaleRev_orientMir_090.png","fearful",1,26,26,"RdYlBu","orientMir","scaleRev","090",NA,NA
"","","","","","html-slider-response",122,343210,"0.0-114.0","c4mfz109tn",10,NA,"<div style=""width:500px;"">
                            <p style=""font-size:50px; font-weight:bold;""
                            >fearful</p>
                            <div style=""width:240px; margin: auto;"">
                                <img src=""images/map15_BuGn_scaleDef_orientMir_000.png"" style= ""width:200px""alt=""img"">
                            </div>
                        </div>",0.355,"",0,"",NA,"","images/map15_BuGn_scaleDef_orientMir_000.png","fearful",1,15,15,"BuGn","orientMir","scaleDef","000",NA,NA
"","","","","","html-slider-response",123,344554,"0.0-115.0","c4mfz109tn",10,NA,"<div style=""width:500px;"">
                            <p style=""font-size:50px; font-weight:bold;""
                            >fearful</p>
                            <div style=""width:240px; margin: auto;"">
                                <img src=""images/map02_berlin_scaleRev_orientDef_090.png"" style= ""width:200px""alt=""img"">
                            </div>
                        </div>",1,"",0,"",NA,"","images/map02_berlin_scaleRev_orientDef_090.png","fearful",1,2,2,"berlin","orientDef","scaleRev","090",NA,NA
"","","","","","html-slider-response",124,345929,"0.0-116.0","c4mfz109tn",10,NA,"<div style=""width:500px;"">
                            <p style=""font-size:50px; font-weight:bold;""
                            >fearful</p>
                            <div style=""width:240px; margin: auto;"">
                                <img src=""images/map26_RdBu_scaleRev_orientDef_270.png"" style= ""width:200px""alt=""img"">
                            </div>
                        </div>",0.4025,"",0,"",NA,"","images/map26_RdBu_scaleRev_orientDef_270.png","fearful",1,26,26,"RdBu","orientDef","scaleRev","270",NA,NA
"","","","","","html-slider-response",125,347180,"0.0-117.0","c4mfz109tn",10,NA,"<div style=""width:500px;"">
                            <p style=""font-size:50px; font-weight:bold;""
                            >fearful</p>
                            <div style=""width:240px; margin: auto;"">
                                <img src=""images/map10_Greens_scaleRev_orientDef_270.png"" style= ""width:200px""alt=""img"">
                            </div>
                        </div>",0.395,"",0,"",NA,"","images/map10_Greens_scaleRev_orientDef_270.png","fearful",1,10,10,"Greens","orientDef","scaleRev","270",NA,NA
"","","","","","html-slider-response",126,348660,"0.0-118.0","c4mfz109tn",10,NA,"<div style=""width:500px;"">
                            <p style=""font-size:50px; font-weight:bold;""
                            >fearful</p>
                            <div style=""width:240px; margin: auto;"">
                                <img src=""images/map10_Reds_scaleDef_orientMir_180.png"" style= ""width:200px""alt=""img"">
                            </div>
                        </div>",0.69,"",0,"",NA,"","images/map10_Reds_scaleDef_orientMir_180.png","fearful",1,10,10,"Reds","orientMir","scaleDef","180",NA,NA
"","","","","","html-slider-response",127,350054,"0.0-119.0","c4mfz109tn",10,NA,"<div style=""width:500px;"">
                            <p style=""font-size:50px; font-weight:bold;""
                            >fearful</p>
                            <div style=""width:240px; margin: auto;"">
                                <img src=""images/map15_YlGn_scaleRev_orientMir_270.png"" style= ""width:200px""alt=""img"">
                            </div>
                        </div>",0.58,"",0,"",NA,"","images/map15_YlGn_scaleRev_orientMir_270.png","fearful",1,15,15,"YlGn","orientMir","scaleRev","270",NA,NA
"","","","","","html-slider-response",128,351525,"0.0-120.0","c4mfz109tn",10,NA,"<div style=""width:500px;"">
                            <p style=""font-size:50px; font-weight:bold;""
                            >fearful</p>
                            <div style=""width:240px; margin: auto;"">
                                <img src=""images/map12_YlOrBr_scaleDef_orientDef_000.png"" style= ""width:200px""alt=""img"">
                            </div>
                        </div>",0.28,"",0,"",NA,"","images/map12_YlOrBr_scaleDef_orientDef_000.png","fearful",1,12,12,"YlOrBr","orientDef","scaleDef","000",NA,NA
"","","","","","html-slider-response",129,353421,"0.0-121.0","c4mfz109tn",10,NA,"<div style=""width:500px;"">
                            <p style=""font-size:50px; font-weight:bold;""
                            >fearful</p>
                            <div style=""width:240px; margin: auto;"">
                                <img src=""images/map27_seismic_scaleDef_orientMir_180.png"" style= ""width:200px""alt=""img"">
                            </div>
                        </div>",0.605,"",0,"",NA,"","images/map27_seismic_scaleDef_orientMir_180.png","fearful",1,27,27,"seismic","orientMir","scaleDef","180",NA,NA
"","","","","","html-slider-response",130,354718,"0.0-122.0","c4mfz109tn",10,NA,"<div style=""width:500px;"">
                            <p style=""font-size:50px; font-weight:bold;""
                            >fearful</p>
                            <div style=""width:240px; margin: auto;"">
                                <img src=""images/map05_inferno_scaleRev_orientMir_270.png"" style= ""width:200px""alt=""img"">
                            </div>
                        </div>",0.7925,"",0,"",NA,"","images/map05_inferno_scaleRev_orientMir_270.png","fearful",1,5,5,"inferno","orientMir","scaleRev","270",NA,NA
"","","","","","html-slider-response",131,356062,"0.0-123.0","c4mfz109tn",10,NA,"<div style=""width:500px;"">
                            <p style=""font-size:50px; font-weight:bold;""
                            >fearful</p>
                            <div style=""width:240px; margin: auto;"">
                                <img src=""images/map13_PuBu_scaleRev_orientMir_270.png"" style= ""width:200px""alt=""img"">
                            </div>
                        </div>",0.39,"",0,"",NA,"","images/map13_PuBu_scaleRev_orientMir_270.png","fearful",1,13,13,"PuBu","orientMir","scaleRev","270",NA,NA
"","","","","","html-slider-response",132,357696,"0.0-124.0","c4mfz109tn",10,NA,"<div style=""width:500px;"">
                            <p style=""font-size:50px; font-weight:bold;""
                            >fearful</p>
                            <div style=""width:240px; margin: auto;"">
                                <img src=""images/map12_PuRd_scaleDef_orientMir_180.png"" style= ""width:200px""alt=""img"">
                            </div>
                        </div>",0.265,"",0,"",NA,"","images/map12_PuRd_scaleDef_orientMir_180.png","fearful",1,12,12,"PuRd","orientMir","scaleDef","180",NA,NA
"","","","","","html-slider-response",133,359025,"0.0-125.0","c4mfz109tn",10,NA,"<div style=""width:500px;"">
                            <p style=""font-size:50px; font-weight:bold;""
                            >fearful</p>
                            <div style=""width:240px; margin: auto;"">
                                <img src=""images/map13_BuPu_scaleRev_orientDef_270.png"" style= ""width:200px""alt=""img"">
                            </div>
                        </div>",0.615,"",0,"",NA,"","images/map13_BuPu_scaleRev_orientDef_270.png","fearful",1,13,13,"BuPu","orientDef","scaleRev","270",NA,NA
"","","","","","html-slider-response",134,360688,"0.0-126.0","c4mfz109tn",10,NA,"<div style=""width:500px;"">
                            <p style=""font-size:50px; font-weight:bold;""
                            >fearful</p>
                            <div style=""width:240px; margin: auto;"">
                                <img src=""images/map10_Reds_scaleRev_orientMir_270.png"" style= ""width:200px""alt=""img"">
                            </div>
                        </div>",0.3175,"",0,"",NA,"","images/map10_Reds_scaleRev_orientMir_270.png","fearful",1,10,10,"Reds","orientMir","scaleRev","270",NA,NA
"","","","","","html-slider-response",135,362226,"0.0-127.0","c4mfz109tn",10,NA,"<div style=""width:500px;"">
                            <p style=""font-size:50px; font-weight:bold;""
                            >fearful</p>
                            <div style=""width:240px; margin: auto;"">
                                <img src=""images/map05_turbo_scaleDef_orientDef_000.png"" style= ""width:200px""alt=""img"">
                            </div>
                        </div>",0.0875,"",0,"",NA,"","images/map05_turbo_scaleDef_orientDef_000.png","fearful",1,5,5,"turbo","orientDef","scaleDef","000",NA,NA
"","","","","","html-slider-response",136,363792,"0.0-128.0","c4mfz109tn",10,NA,"<div style=""width:500px;"">
                            <p style=""font-size:50px; font-weight:bold;""
                            >fearful</p>
                            <div style=""width:240px; margin: auto;"">
                                <img src=""images/map26_RdYlBu_scaleDef_orientMir_000.png"" style= ""width:200px""alt=""img"">
                            </div>
                        </div>",0.945,"",0,"",NA,"","images/map26_RdYlBu_scaleDef_orientMir_000.png","fearful",1,26,26,"RdYlBu","orientMir","scaleDef","000",NA,NA
"","","","","","html-slider-response",137,365458,"0.0-129.0","c4mfz109tn",10,NA,"<div style=""width:500px;"">
                            <p style=""font-size:50px; font-weight:bold;""
                            >fearful</p>
                            <div style=""width:240px; margin: auto;"">
                                <img src=""images/map15_YlGnBu_scaleRev_orientDef_090.png"" style= ""width:200px""alt=""img"">
                            </div>
                        </div>",0.315,"",0,"",NA,"","images/map15_YlGnBu_scaleRev_orientDef_090.png","fearful",1,15,15,"YlGnBu","orientDef","scaleRev","090",NA,NA
"","","","","","html-slider-response",138,366689,"0.0-130.0","c4mfz109tn",10,NA,"<div style=""width:500px;"">
                            <p style=""font-size:50px; font-weight:bold;""
                            >fearful</p>
                            <div style=""width:240px; margin: auto;"">
                                <img src=""images/map15_PuBuGn_scaleRev_orientDef_270.png"" style= ""width:200px""alt=""img"">
                            </div>
                        </div>",0.3075,"",0,"",NA,"","images/map15_PuBuGn_scaleRev_orientDef_270.png","fearful",1,15,15,"PuBuGn","orientDef","scaleRev","270",NA,NA
"","","","","","html-slider-response",139,368221,"0.0-131.0","c4mfz109tn",10,NA,"<div style=""width:500px;"">
                            <p style=""font-size:50px; font-weight:bold;""
                            >fearful</p>
                            <div style=""width:240px; margin: auto;"">
                                <img src=""images/map23_PiYG_scaleDef_orientDef_000.png"" style= ""width:200px""alt=""img"">
                            </div>
                        </div>",0.615,"",0,"",NA,"","images/map23_PiYG_scaleDef_orientDef_000.png","fearful",1,23,23,"PiYG","orientDef","scaleDef","000",NA,NA
"","","","","","html-slider-response",140,369776,"0.0-132.0","c4mfz109tn",10,NA,"<div style=""width:500px;"">
                            <p style=""font-size:50px; font-weight:bold;""
                            >fearful</p>
                            <div style=""width:240px; margin: auto;"">
                                <img src=""images/map07_magma_scaleRev_orientDef_090.png"" style= ""width:200px""alt=""img"">
                            </div>
                        </div>",0.765,"",0,"",NA,"","images/map07_magma_scaleRev_orientDef_090.png","fearful",1,7,7,"magma","orientDef","scaleRev","090",NA,NA
"","","","","","html-slider-response",141,371285,"0.0-133.0","c4mfz109tn",10,NA,"<div style=""width:500px;"">
                            <p style=""font-size:50px; font-weight:bold;""
                            >fearful</p>
                            <div style=""width:240px; margin: auto;"">
                                <img src=""images/map23_BrBG_scaleRev_orientMir_090.png"" style= ""width:200px""alt=""img"">
                            </div>
                        </div>",0.275,"",0,"",NA,"","images/map23_BrBG_scaleRev_orientMir_090.png","fearful",1,23,23,"BrBG","orientMir","scaleRev","090",NA,NA
"","","","","","html-slider-response",142,372681,"0.0-134.0","c4mfz109tn",10,NA,"<div style=""width:500px;"">
                            <p style=""font-size:50px; font-weight:bold;""
                            >fearful</p>
                            <div style=""width:240px; margin: auto;"">
                                <img src=""images/map27_coolwarm_scaleDef_orientDef_180.png"" style= ""width:200px""alt=""img"">
                            </div>
                        </div>",0.385,"",0,"",NA,"","images/map27_coolwarm_scaleDef_orientDef_180.png","fearful",1,27,27,"coolwarm","orientDef","scaleDef","180",NA,NA
"","","","","","html-slider-response",143,374185,"0.0-135.0","c4mfz109tn",10,NA,"<div style=""width:500px;"">
                            <p style=""font-size:50px; font-weight:bold;""
                            >fearful</p>
                            <div style=""width:240px; margin: auto;"">
                                <img src=""images/map05_viridis_scaleDef_orientDef_180.png"" style= ""width:200px""alt=""img"">
                            </div>
                        </div>",0.6825,"",0,"",NA,"","images/map05_viridis_scaleDef_orientDef_180.png","fearful",1,5,5,"viridis","orientDef","scaleDef","180",NA,NA
"","","","","","html-slider-response",144,375355,"0.0-136.0","c4mfz109tn",10,NA,"<div style=""width:500px;"">
                            <p style=""font-size:50px; font-weight:bold;""
                            >fearful</p>
                            <div style=""width:240px; margin: auto;"">
                                <img src=""images/map12_OrRd_scaleDef_orientMir_000.png"" style= ""width:200px""alt=""img"">
                            </div>
                        </div>",0.315,"",0,"",NA,"","images/map12_OrRd_scaleDef_orientMir_000.png","fearful",1,12,12,"OrRd","orientMir","scaleDef","000",NA,NA
"","","","","","html-button-response",145,377328,"0.0-137.0","c4mfz109tn",10,1470,"<p>You are doing great!<br></br> You are halway done with the current block. When you are ready to continue, click the 'Continue' button.</p>",0.5,"",NA,"",NA,"","","",NA,NA,NA,"","","","",NA,NA
"","","","","","html-slider-response",146,378551,"0.0-138.0","c4mfz109tn",10,NA,"<div style=""width:500px;"">
                            <p style=""font-size:50px; font-weight:bold;""
                            >fearful</p>
                            <div style=""width:240px; margin: auto;"">
                                <img src=""images/map15_BuGn_scaleRev_orientMir_090.png"" style= ""width:200px""alt=""img"">
                            </div>
                        </div>",0.49,"",0,"",NA,"","images/map15_BuGn_scaleRev_orientMir_090.png","fearful",1,15,15,"BuGn","orientMir","scaleRev","090",NA,NA
"","","","","","html-slider-response",147,379779,"0.0-139.0","c4mfz109tn",10,NA,"<div style=""width:500px;"">
                            <p style=""font-size:50px; font-weight:bold;""
                            >fearful</p>
                            <div style=""width:240px; margin: auto;"">
                                <img src=""images/map07_cividis_scaleDef_orientDef_180.png"" style= ""width:200px""alt=""img"">
                            </div>
                        </div>",0.6425,"",0,"",NA,"","images/map07_cividis_scaleDef_orientDef_180.png","fearful",1,7,7,"cividis","orientDef","scaleDef","180",NA,NA
"","","","","","html-slider-response",148,380944,"0.0-140.0","c4mfz109tn",10,NA,"<div style=""width:500px;"">
                            <p style=""font-size:50px; font-weight:bold;""
                            >fearful</p>
                            <div style=""width:240px; margin: auto;"">
                                <img src=""images/map02_berlin_scaleDef_orientDef_000.png"" style= ""width:200px""alt=""img"">
                            </div>
                        </div>",0.25,"",0,"",NA,"","images/map02_berlin_scaleDef_orientDef_000.png","fearful",1,2,2,"berlin","orientDef","scaleDef","000",NA,NA
"","","","","","html-slider-response",149,382154,"0.0-141.0","c4mfz109tn",10,NA,"<div style=""width:500px;"">
                            <p style=""font-size:50px; font-weight:bold;""
                            >fearful</p>
                            <div style=""width:240px; margin: auto;"">
                                <img src=""images/map26_RdBu_scaleDef_orientDef_180.png"" style= ""width:200px""alt=""img"">
                            </div>
                        </div>",0.6675,"",0,"",NA,"","images/map26_RdBu_scaleDef_orientDef_180.png","fearful",1,26,26,"RdBu","orientDef","scaleDef","180",NA,NA
"","","","","","html-slider-response",150,383312,"0.0-142.0","c4mfz109tn",10,NA,"<div style=""width:500px;"">
                            <p style=""font-size:50px; font-weight:bold;""
                            >fearful</p>
                            <div style=""width:240px; margin: auto;"">
                                <img src=""images/map27_Spectral_scaleDef_orientDef_000.png"" style= ""width:200px""alt=""img"">
                            </div>
                        </div>",0.2925,"",0,"",NA,"","images/map27_Spectral_scaleDef_orientDef_000.png","fearful",1,27,27,"Spectral","orientDef","scaleDef","000",NA,NA
"","","","","","html-slider-response",151,384484,"0.0-143.0","c4mfz109tn",10,NA,"<div style=""width:500px;"">
                            <p style=""font-size:50px; font-weight:bold;""
                            >fearful</p>
                            <div style=""width:240px; margin: auto;"">
                                <img src=""images/map23_PRGn_scaleRev_orientDef_270.png"" style= ""width:200px""alt=""img"">
                            </div>
                        </div>",0.7125,"",0,"",NA,"","images/map23_PRGn_scaleRev_orientDef_270.png","fearful",1,23,23,"PRGn","orientDef","scaleRev","270",NA,NA
"","","","","","html-slider-response",152,385850,"0.0-144.0","c4mfz109tn",10,NA,"<div style=""width:500px;"">
                            <p style=""font-size:50px; font-weight:bold;""
                            >fearful</p>
                            <div style=""width:240px; margin: auto;"">
                                <img src=""images/map07_Purples_scaleRev_orientMir_270.png"" style= ""width:200px""alt=""img"">
                            </div>
                        </div>",0.63,"",0,"",NA,"","images/map07_Purples_scaleRev_orientMir_270.png","fearful",1,7,7,"Purples","orientMir","scaleRev","270",NA,NA
"","","","","","html-slider-response",153,387288,"0.0-145.0","c4mfz109tn",10,NA,"<div style=""width:500px;"">
                            <p style=""font-size:50px; font-weight:bold;""
                            >fearful</p>
                            <div style=""width:240px; margin: auto;"">
                                <img src=""images/map26_RdGy_scaleDef_orientDef_000.png"" style= ""width:200px""alt=""img"">
                            </div>
                        </div>",0.715,"",0,"",NA,"","images/map26_RdGy_scaleDef_orientDef_000.png","fearful",1,26,26,"RdGy","orientDef","scaleDef","000",NA,NA
"","","","","","html-slider-response",154,388694,"0.0-146.0","c4mfz109tn",10,NA,"<div style=""width:500px;"">
                            <p style=""font-size:50px; font-weight:bold;""
                            >fearful</p>
                            <div style=""width:240px; margin: auto;"">
                                <img src=""images/map23_PRGn_scaleDef_orientDef_180.png"" style= ""width:200px""alt=""img"">
                            </div>
                        </div>",0.385,"",0,"",NA,"","images/map23_PRGn_scaleDef_orientDef_180.png","fearful",1,23,23,"PRGn","orientDef","scaleDef","180",NA,NA
"","","","","","html-slider-response",155,390426,"0.0-147.0","c4mfz109tn",10,NA,"<div style=""width:500px;"">
                            <p style=""font-size:50px; font-weight:bold;""
                            >fearful</p>
                            <div style=""width:240px; margin: auto;"">
                                <img src=""images/map05_inferno_scaleDef_orientMir_180.png"" style= ""width:200px""alt=""img"">
                            </div>
                        </div>",0.2,"",0,"",NA,"","images/map05_inferno_scaleDef_orientMir_180.png","fearful",1,5,5,"inferno","orientMir","scaleDef","180",NA,NA
"","","","","","html-slider-response",156,392139,"0.0-148.0","c4mfz109tn",10,NA,"<div style=""width:500px;"">
                            <p style=""font-size:50px; font-weight:bold;""
                            >fearful</p>
                            <div style=""width:240px; margin: auto;"">
                                <img src=""images/map02_managua_scaleRev_orientDef_270.png"" style= ""width:200px""alt=""img"">
                            </div>
                        </div>",0.355,"",0,"",NA,"","images/map02_managua_scaleRev_orientDef_270.png","fearful",1,2,2,"managua","orientDef","scaleRev","270",NA,NA
"","","","","","html-slider-response",157,393593,"0.0-149.0","c4mfz109tn",10,NA,"<div style=""width:500px;"">
                            <p style=""font-size:50px; font-weight:bold;""
                            >fearful</p>
                            <div style=""width:240px; margin: auto;"">
                                <img src=""images/map07_Greys_scaleRev_orientMir_090.png"" style= ""width:200px""alt=""img"">
                            </div>
                        </div>",1,"",0,"",NA,"","images/map07_Greys_scaleRev_orientMir_090.png","fearful",1,7,7,"Greys","orientMir","scaleRev","090",NA,NA
"","","","","","html-slider-response",158,395600,"0.0-150.0","c4mfz109tn",10,NA,"<div style=""width:500px;"">
                            <p style=""font-size:50px; font-weight:bold;""
                            >fearful</p>
                            <div style=""width:240px; margin: auto;"">
                                <img src=""images/map27_bwr_scaleRev_orientMir_090.png"" style= ""width:200px""alt=""img"">
                            </div>
                        </div>",0.195,"",0,"",NA,"","images/map27_bwr_scaleRev_orientMir_090.png","fearful",1,27,27,"bwr","orientMir","scaleRev","090",NA,NA
"","","","","","html-slider-response",159,397009,"0.0-151.0","c4mfz109tn",10,NA,"<div style=""width:500px;"">
                            <p style=""font-size:50px; font-weight:bold;""
                            >fearful</p>
                            <div style=""width:240px; margin: auto;"">
                                <img src=""images/map27_coolwarm_scaleRev_orientDef_270.png"" style= ""width:200px""alt=""img"">
                            </div>
                        </div>",0.2625,"",0,"",NA,"","images/map27_coolwarm_scaleRev_orientDef_270.png","fearful",1,27,27,"coolwarm","orientDef","scaleRev","270",NA,NA
"","","","","","html-slider-response",160,398458,"0.0-152.0","c4mfz109tn",10,NA,"<div style=""width:500px;"">
                            <p style=""font-size:50px; font-weight:bold;""
                            >fearful</p>
                            <div style=""width:240px; margin: auto;"">
                                <img src=""images/map12_PuRd_scaleRev_orientMir_270.png"" style= ""width:200px""alt=""img"">
                            </div>
                        </div>",0.365,"",0,"",NA,"","images/map12_PuRd_scaleRev_orientMir_270.png","fearful",1,12,12,"PuRd","orientMir","scaleRev","270",NA,NA
"","","","","","html-slider-response",161,400280,"0.0-153.0","c4mfz109tn",10,NA,"<div style=""width:500px;"">
                            <p style=""font-size:50px; font-weight:bold;""
                            >fearful</p>
                            <div style=""width:240px; margin: auto;"">
                                <img src=""images/map05_turbo_scaleRev_orientDef_090.png"" style= ""width:200px""alt=""img"">
                            </div>
                        </div>",0.715,"",0,"",NA,"","images/map05_turbo_scaleRev_orientDef_090.png","fearful",1,5,5,"turbo","orientDef","scaleRev","090",NA,NA
"","","","","","html-slider-response",162,401789,"0.0-154.0","c4mfz109tn",10,NA,"<div style=""width:500px;"">
                            <p style=""font-size:50px; font-weight:bold;""
                            >fearful</p>
                            <div style=""width:240px; margin: auto;"">
                                <img src=""images/map05_plasma_scaleRev_orientMir_090.png"" style= ""width:200px""alt=""img"">
                            </div>
                        </div>",0.365,"",0,"",NA,"","images/map05_plasma_scaleRev_orientMir_090.png","fearful",1,5,5,"plasma","orientMir","scaleRev","090",NA,NA
"","","","","","html-slider-response",163,403776,"0.0-155.0","c4mfz109tn",10,NA,"<div style=""width:500px;"">
                            <p style=""font-size:50px; font-weight:bold;""
                            >fearful</p>
                            <div style=""width:240px; margin: auto;"">
                                <img src=""images/map15_YlGnBu_scaleDef_orientDef_000.png"" style= ""width:200px""alt=""img"">
                            </div>
                        </div>",0.265,"",0,"",NA,"","images/map15_YlGnBu_scaleDef_orientDef_000.png","fearful",1,15,15,"YlGnBu","orientDef","scaleDef","000",NA,NA
"","","","","","html-slider-response",164,405869,"0.0-156.0","c4mfz109tn",10,NA,"<div style=""width:500px;"">
                            <p style=""font-size:50px; font-weight:bold;""
