"success","timeout","failed_images","failed_audio","failed_video","trial_type","trial_index","time_elapsed","internal_node_id","subject_id","condition_num","rt","stimulus","response","question_order","slider_start","practiceTrial","practiceTrialNum","correct","image_path","concept","repetition","map_id","map_num","scale_name","orientation_code","mapping_code","rotation_code","ishihara_plate","correct_response"
"true","false","[]","[]","[]","preload",0,1767,"0.0-0.0","r7gvr3dk2a",52,NA,"",NA,"",NA,"",NA,"","","",NA,NA,NA,"","","","",NA,NA
"","","","","","html-button-response",1,4726,"0.0-1.0","r7gvr3dk2a",52,2957,"Welcome to our experiment!<p>At the bottom of this screen, you will see a button that says ""Begin Experiment"".<br>Please only click that button when you are ready to complete the 30 minute experiment in one sitting.</p><p> Once you click that button, it will not be possible to restart the experiment.",0.5,"",NA,"",NA,"","","",NA,NA,NA,"","","","",NA,NA
"true","","","","","fullscreen",2,8659,"0.0-2.0","r7gvr3dk2a",52,2930,"",NA,"",NA,"",NA,"","","",NA,NA,NA,"","","","",NA,NA
"","","","","","survey-multi-select",3,66959,"0.0-3.0","r7gvr3dk2a",52,58294,"",NA,"[0]",NA,"",NA,"","","",NA,NA,NA,"","","","",NA,NA
"","","","","","html-button-response",4,73575,"0.0-4.0","r7gvr3dk2a",52,6613,"Welcome! <p> This experiment involves two parts: demographic information, followed by the experimental task.<p> It will take about 30 minutes to complete both parts.",0.5,"",NA,"",NA,"","","",NA,NA,NA,"","","","",NA,NA
"","","","","","survey-text",5,89093,"0.0-5.0","r7gvr3dk2a",52,15510,"",NA,"",NA,"",NA,"","","",NA,NA,NA,"","","","",NA,NA
"","","","","","html-slider-response",6,153242,"0.0-6.0","r7gvr3dk2a",52,64144,"<div style='text-align:left; font-size:20px; line-height:25px; width: 1000px;'>
                                During this experiment you will be asked to rate how much you associate maps with                    different concepts.<br> Below, you can see some examples of the maps you will be asked to rate. Above the maps
                    is the list of concepts.<br>You will be asked                    to rate how much you associate each map with each concept on a scale from 'not at all' to 'very much' like the
                    one below. <br><br>
                    Now, please look at the list of concepts and maps. For each concept, think about the map you associate 'very
                    much' with the concept.<br>                     When you see that map during the experiment, please rate it near the 'very much' endpoint of the
                    scale.<br>Now, please think about which map you associate 'not at all'                     with each concept. When you see that map during the experiment, please rate it near the 'not at all' endpoint
                    of the scale.<br>
                    Please use the full range of the scale. That is, if a map is somewhat associated with the concept, you would
                    click partway between the middle point and right side of the scale.                    You will be asked to rate each map for a given concept before moving on to the next concept.<br>Press the
                    'Continue' button for instructions on how to use the slider.                    <br>
                </div>

                <div style=""width: 500px; margin: 0 auto;"">
                    <!-- Centered text paragraphs -->
                    <div style=""text-align: center; width: 500px;"">
                        <p style=""font-size:25px; line-height:15px;"">
                            disgust&nbsp;&nbsp;&nbsp;&nbsp;
                            sad&nbsp;&nbsp;&nbsp;&nbsp;
                            angry&nbsp;&nbsp;&nbsp;&nbsp;
                            fearful&nbsp;&nbsp;&nbsp;&nbsp;
                            happy
                        </p>
                        <!-- <p style=""font-size:20px; line-height:15px;"">sad</p>
                        <p style=""font-size:20px;line-height:15px;"">angry</p>
                        <p style=""font-size:20px;line-height:15px;"">fearful</p>
                        <p style=""font-size:20px;line-height:15px;"">happy</p> -->
                    </div>
            

                    <!-- Grid section -->
                   <div style=""display: flex; justify-content: center; padding-top: 15px;"">
                    <div style=""display: grid; grid-template-columns: repeat(10, 55px); grid-gap: 5px; width: auto;"">
                        <img src=""images/map02_PuRd_scaleRev_orientDef_090.png"" alt=""map"" style=""width: 100%;""><img src=""images/map27_Reds_scaleDef_orientDef_000.png"" alt=""map"" style=""width: 100%;""><img src=""images/map12_bwr_scaleRev_orientMir_270.png"" alt=""map"" style=""width: 100%;""><img src=""images/map15_gist_earth_scaleRev_orientDef_090.png"" alt=""map"" style=""width: 100%;""><img src=""images/map10_RdBu_scaleRev_orientMir_090.png"" alt=""map"" style=""width: 100%;""><img src=""images/map02_BuPu_scaleRev_orientMir_090.png"" alt=""map"" style=""width: 100%;""><img src=""images/map23_cividis_scaleRev_orientMir_090.png"" alt=""map"" style=""width: 100%;""><img src=""images/map05_PuBuGn_scaleRev_orientMir_090.png"" alt=""map"" style=""width: 100%;""><img src=""images/map10_RdGy_scaleDef_orientDef_180.png"" alt=""map"" style=""width: 100%;""><img src=""images/map26_Purples_scaleRev_orientDef_090.png"" alt=""map"" style=""width: 100%;""><img src=""images/map12_RdYlGn_scaleDef_orientDef_000.png"" alt=""map"" style=""width: 100%;""><img src=""images/map23_magma_scaleRev_orientDef_270.png"" alt=""map"" style=""width: 100%;""><img src=""images/map26_Greens_scaleRev_orientMir_090.png"" alt=""map"" style=""width: 100%;""><img src=""images/map02_RdPu_scaleRev_orientDef_270.png"" alt=""map"" style=""width: 100%;""><img src=""images/map07_YlGn_scaleRev_orientDef_090.png"" alt=""map"" style=""width: 100%;""><img src=""images/map27_OrRd_scaleDef_orientMir_180.png"" alt=""map"" style=""width: 100%;""><img src=""images/map26_Oranges_scaleRev_orientMir_270.png"" alt=""map"" style=""width: 100%;""><img src=""images/map26_Blues_scaleRev_orientDef_270.png"" alt=""map"" style=""width: 100%;""><img src=""images/map23_Greys_scaleDef_orientMir_180.png"" alt=""map"" style=""width: 100%;""><img src=""images/map07_PRGn_scaleRev_orientMir_090.png"" alt=""map"" style=""width: 100%;""><img src=""images/map05_BuGn_scaleRev_orientMir_270.png"" alt=""map"" style=""width: 100%;""><img src=""images/map13_managua_scaleDef_orientMir_000.png"" alt=""map"" style=""width: 100%;""><img src=""images/map15_viridis_scaleDef_orientMir_000.png"" alt=""map"" style=""width: 100%;""><img src=""images/map23_inferno_scaleRev_orientDef_090.png"" alt=""map"" style=""width: 100%;""><img src=""images/map10_PuOr_scaleRev_orientDef_090.png"" alt=""map"" style=""width: 100%;""><img src=""images/map07_PiYG_scaleDef_orientDef_180.png"" alt=""map"" style=""width: 100%;""><img src=""images/map27_YlOrRd_scaleDef_orientMir_000.png"" alt=""map"" style=""width: 100%;""><img src=""images/map13_berlin_scaleRev_orientDef_270.png"" alt=""map"" style=""width: 100%;""><img src=""images/map15_turbo_scaleRev_orientDef_270.png"" alt=""map"" style=""width: 100%;""><img src=""images/map05_PuBu_scaleRev_orientDef_090.png"" alt=""map"" style=""width: 100%;""><img src=""images/map12_Spectral_scaleDef_orientDef_180.png"" alt=""map"" style=""width: 100%;""><img src=""images/map12_coolwarm_scaleRev_orientMir_090.png"" alt=""map"" style=""width: 100%;""><img src=""images/map27_YlOrBr_scaleRev_orientDef_270.png"" alt=""map"" style=""width: 100%;""><img src=""images/map10_RdYlBu_scaleDef_orientMir_180.png"" alt=""map"" style=""width: 100%;""><img src=""images/map15_plasma_scaleRev_orientMir_270.png"" alt=""map"" style=""width: 100%;""><img src=""images/map13_seismic_scaleDef_orientDef_000.png"" alt=""map"" style=""width: 100%;""><img src=""images/map13_vanimo_scaleDef_orientMir_180.png"" alt=""map"" style=""width: 100%;""><img src=""images/map07_BrBG_scaleDef_orientMir_180.png"" alt=""map"" style=""width: 100%;""><img src=""images/map05_YlGnBu_scaleRev_orientDef_270.png"" alt=""map"" style=""width: 100%;""><img src=""images/map02_GnBu_scaleRev_orientMir_270.png"" alt=""map"" style=""width: 100%;"">
                    </div>
                </div>

                    <!-- Clear floats -->
                    <div style=""clear: both;""></div>
                </div>
                            ",0.5025,"",0,"true",NA,"","","",NA,NA,NA,"","","","",NA,NA
"","","","","","html-button-response",7,161742,"0.0-7.0","r7gvr3dk2a",52,8498,"<div style=""width:800px;""><p style=""text-align:left"">To move the slider, click and drag your cursor to the location of the scale where you would like to make your rating and then let go. When you let go of the slider, your response will be recorded and the next trial will begin. <br>
                    We are interested in your initial impressions of each map for the given concept, so please go with your first intuition. <br>
                    Before you begin the experiment, there will be four training trials for you to practice using the scale. <br>
                     When you are ready to start the training trials, please click ""Continue"".</p><br></div>",0.5,"",NA,"",NA,"","","",NA,NA,NA,"","","","",NA,NA
"","","","","","html-slider-response",8,165719,"0.0-8.0-0.0","r7gvr3dk2a",52,NA,"<div style=""width:500px;"">
                                    <p style=""font-size:25px;"">Please move the slider all the way to the <br> right endpoint of the scale</p>

                                    </div>
                                </div>",1,"",0,"true",0,"true","","",NA,NA,NA,"","","","",NA,NA
"","","","","","html-button-response",9,167175,"0.0-8.0-1.0","r7gvr3dk2a",52,952,"<p align='center'><b>Good job!</b> Click on 'Continue' to proceed.</p>",0.5,"",NA,"",NA,"","","",NA,NA,NA,"","","","",NA,NA
"","","","","","html-slider-response",10,169070,"0.0-9.0-0.0","r7gvr3dk2a",52,NA,"<div style=""width:500px;"">
                                    <p style=""font-size:25px;"">Please move the slider all the way to the <br> left endpoint of the scale</p>

                                    </div>
                                </div>",0,"",0,"true",1,"true","","",NA,NA,NA,"","","","",NA,NA
"","","","","","html-button-response",11,170391,"0.0-9.0-1.0","r7gvr3dk2a",52,818,"<p align='center'><b>Good job!</b> Click on 'Continue' to proceed.</p>",0.5,"",NA,"",NA,"","","",NA,NA,NA,"","","","",NA,NA
"","","","","","html-slider-response",12,174718,"0.0-10.0-0.0","r7gvr3dk2a",52,NA,"<div style=""width:500px;"">
                                    <p style=""font-size:25px;"">Please move the slider halfway between the center and right endpoint of the scale</p>

                                    </div>
                                </div>",0.76,"",0,"true",2,"true","","",NA,NA,NA,"","","","",NA,NA
"","","","","","html-button-response",13,176291,"0.0-10.0-1.0","r7gvr3dk2a",52,1070,"<p align='center'><b>Good job!</b> Click on 'Continue' to proceed.</p>",0.5,"",NA,"",NA,"","","",NA,NA,NA,"","","","",NA,NA
"","","","","","html-slider-response",14,178202,"0.0-11.0-0.0","r7gvr3dk2a",52,NA,"<div style=""width:500px;"">
                                    <p style=""font-size:25px;"">Please move the slider halfway between the center and left endpoint of the scale</p>

                                    </div>
                                </div>",0.23,"",0,"true",3,"true","","",NA,NA,NA,"","","","",NA,NA
"","","","","","html-button-response",15,179508,"0.0-11.0-1.0","r7gvr3dk2a",52,803,"<p align='center'><b>Good job!</b> Click on 'Continue' to proceed.</p>",0.5,"",NA,"",NA,"","","",NA,NA,NA,"","","","",NA,NA
"","","","","","html-button-response",16,180792,"0.0-12.0","r7gvr3dk2a",52,1283,"<p>Great job! You've completed the practice trials. Now you will begin the main task.</p>",0.5,"",NA,"",NA,"","","",NA,NA,NA,"","","","",NA,NA
"","","","","","html-button-response",17,185808,"0.0-13.0","r7gvr3dk2a",52,5015,"<p>In this block of trials, you will be asked to rate how much you associate each map with:</p > <p style = 'font-size:150%; font-weight: bold'>disgust</p><br></br>",0.5,"",NA,"",NA,"","","",NA,NA,NA,"","","","",NA,NA
"","","","","","html-slider-response",18,190319,"0.0-14.0","r7gvr3dk2a",52,NA,"<div style=""width:500px;"">
                            <p style=""font-size:50px; font-weight:bold;""
                            >disgust</p>
                            <div style=""width:240px; margin: auto;"">
                                <img src=""images/map02_BuPu_scaleRev_orientMir_090.png"" style= ""width:200px""alt=""img"">
                            </div>
                        </div>",0.395,"",0,"",NA,"","images/map02_BuPu_scaleRev_orientMir_090.png","disgust",1,2,2,"BuPu","orientMir","scaleRev","090",NA,NA
"","","","","","html-slider-response",19,194570,"0.0-15.0","r7gvr3dk2a",52,NA,"<div style=""width:500px;"">
                            <p style=""font-size:50px; font-weight:bold;""
                            >disgust</p>
                            <div style=""width:240px; margin: auto;"">
                                <img src=""images/map27_Reds_scaleRev_orientDef_090.png"" style= ""width:200px""alt=""img"">
                            </div>
                        </div>",0.2725,"",0,"",NA,"","images/map27_Reds_scaleRev_orientDef_090.png","disgust",1,27,27,"Reds","orientDef","scaleRev","090",NA,NA
"","","","","","html-slider-response",20,199121,"0.0-16.0","r7gvr3dk2a",52,NA,"<div style=""width:500px;"">
                            <p style=""font-size:50px; font-weight:bold;""
                            >disgust</p>
                            <div style=""width:240px; margin: auto;"">
                                <img src=""images/map23_Greys_scaleRev_orientMir_270.png"" style= ""width:200px""alt=""img"">
                            </div>
                        </div>",0.135,"",0,"",NA,"","images/map23_Greys_scaleRev_orientMir_270.png","disgust",1,23,23,"Greys","orientMir","scaleRev","270",NA,NA
"","","","","","html-slider-response",21,201736,"0.0-17.0","r7gvr3dk2a",52,NA,"<div style=""width:500px;"">
                            <p style=""font-size:50px; font-weight:bold;""
                            >disgust</p>
                            <div style=""width:240px; margin: auto;"">
                                <img src=""images/map05_BuGn_scaleDef_orientMir_180.png"" style= ""width:200px""alt=""img"">
                            </div>
                        </div>",0.5575,"",0,"",NA,"","images/map05_BuGn_scaleDef_orientMir_180.png","disgust",1,5,5,"BuGn","orientMir","scaleDef","180",NA,NA
"","","","","","html-slider-response",22,204153,"0.0-18.0","r7gvr3dk2a",52,NA,"<div style=""width:500px;"">
                            <p style=""font-size:50px; font-weight:bold;""
                            >disgust</p>
                            <div style=""width:240px; margin: auto;"">
                                <img src=""images/map05_PuBu_scaleDef_orientDef_000.png"" style= ""width:200px""alt=""img"">
                            </div>
                        </div>",0,"",0,"",NA,"","images/map05_PuBu_scaleDef_orientDef_000.png","disgust",1,5,5,"PuBu","orientDef","scaleDef","000",NA,NA
"","","","","","html-slider-response",23,206570,"0.0-19.0","r7gvr3dk2a",52,NA,"<div style=""width:500px;"">
                            <p style=""font-size:50px; font-weight:bold;""
                            >disgust</p>
                            <div style=""width:240px; margin: auto;"">
                                <img src=""images/map13_berlin_scaleRev_orientDef_270.png"" style= ""width:200px""alt=""img"">
                            </div>
                        </div>",0.7125,"",0,"",NA,"","images/map13_berlin_scaleRev_orientDef_270.png","disgust",1,13,13,"berlin","orientDef","scaleRev","270",NA,NA
"","","","","","html-slider-response",24,209235,"0.0-20.0","r7gvr3dk2a",52,NA,"<div style=""width:500px;"">
                            <p style=""font-size:50px; font-weight:bold;""
                            >disgust</p>
                            <div style=""width:240px; margin: auto;"">
                                <img src=""images/map23_cividis_scaleDef_orientMir_000.png"" style= ""width:200px""alt=""img"">
                            </div>
                        </div>",0.98,"",0,"",NA,"","images/map23_cividis_scaleDef_orientMir_000.png","disgust",1,23,23,"cividis","orientMir","scaleDef","000",NA,NA
"","","","","","html-slider-response",25,211870,"0.0-21.0","r7gvr3dk2a",52,NA,"<div style=""width:500px;"">
                            <p style=""font-size:50px; font-weight:bold;""
                            >disgust</p>
                            <div style=""width:240px; margin: auto;"">
                                <img src=""images/map26_Greens_scaleRev_orientMir_090.png"" style= ""width:200px""alt=""img"">
                            </div>
                        </div>",1,"",0,"",NA,"","images/map26_Greens_scaleRev_orientMir_090.png","disgust",1,26,26,"Greens","orientMir","scaleRev","090",NA,NA
"","","","","","html-slider-response",26,214206,"0.0-22.0","r7gvr3dk2a",52,NA,"<div style=""width:500px;"">
                            <p style=""font-size:50px; font-weight:bold;""
                            >disgust</p>
                            <div style=""width:240px; margin: auto;"">
                                <img src=""images/map13_seismic_scaleRev_orientDef_090.png"" style= ""width:200px""alt=""img"">
                            </div>
                        </div>",1,"",0,"",NA,"","images/map13_seismic_scaleRev_orientDef_090.png","disgust",1,13,13,"seismic","orientDef","scaleRev","090",NA,NA
"","","","","","html-slider-response",27,217803,"0.0-23.0","r7gvr3dk2a",52,NA,"<div style=""width:500px;"">
                            <p style=""font-size:50px; font-weight:bold;""
                            >disgust</p>
                            <div style=""width:240px; margin: auto;"">
                                <img src=""images/map10_PuOr_scaleRev_orientDef_090.png"" style= ""width:200px""alt=""img"">
                            </div>
                        </div>",0.6175,"",0,"",NA,"","images/map10_PuOr_scaleRev_orientDef_090.png","disgust",1,10,10,"PuOr","orientDef","scaleRev","090",NA,NA
"","","","","","html-slider-response",28,220788,"0.0-24.0","r7gvr3dk2a",52,NA,"<div style=""width:500px;"">
                            <p style=""font-size:50px; font-weight:bold;""
                            >disgust</p>
                            <div style=""width:240px; margin: auto;"">
                                <img src=""images/map15_plasma_scaleRev_orientMir_270.png"" style= ""width:200px""alt=""img"">
                            </div>
                        </div>",0.8475,"",0,"",NA,"","images/map15_plasma_scaleRev_orientMir_270.png","disgust",1,15,15,"plasma","orientMir","scaleRev","270",NA,NA
"","","","","","html-slider-response",29,223835,"0.0-25.0","r7gvr3dk2a",52,NA,"<div style=""width:500px;"">
                            <p style=""font-size:50px; font-weight:bold;""
                            >disgust</p>
                            <div style=""width:240px; margin: auto;"">
                                <img src=""images/map23_Greys_scaleDef_orientMir_180.png"" style= ""width:200px""alt=""img"">
                            </div>
                        </div>",0.245,"",0,"",NA,"","images/map23_Greys_scaleDef_orientMir_180.png","disgust",1,23,23,"Greys","orientMir","scaleDef","180",NA,NA
"","","","","","html-slider-response",30,227120,"0.0-26.0","r7gvr3dk2a",52,NA,"<div style=""width:500px;"">
                            <p style=""font-size:50px; font-weight:bold;""
                            >disgust</p>
                            <div style=""width:240px; margin: auto;"">
                                <img src=""images/map05_BuGn_scaleRev_orientMir_270.png"" style= ""width:200px""alt=""img"">
                            </div>
                        </div>",1,"",0,"",NA,"","images/map05_BuGn_scaleRev_orientMir_270.png","disgust",1,5,5,"BuGn","orientMir","scaleRev","270",NA,NA
"","","","","","html-slider-response",31,230162,"0.0-27.0","r7gvr3dk2a",52,NA,"<div style=""width:500px;"">
                            <p style=""font-size:50px; font-weight:bold;""
                            >disgust</p>
                            <div style=""width:240px; margin: auto;"">
                                <img src=""images/map23_magma_scaleDef_orientDef_180.png"" style= ""width:200px""alt=""img"">
                            </div>
                        </div>",0.735,"",0,"",NA,"","images/map23_magma_scaleDef_orientDef_180.png","disgust",1,23,23,"magma","orientDef","scaleDef","180",NA,NA
"","","","","","html-slider-response",32,232419,"0.0-28.0","r7gvr3dk2a",52,NA,"<div style=""width:500px;"">
                            <p style=""font-size:50px; font-weight:bold;""
                            >disgust</p>
                            <div style=""width:240px; margin: auto;"">
                                <img src=""images/map07_PRGn_scaleDef_orientMir_000.png"" style= ""width:200px""alt=""img"">
                            </div>
                        </div>",1,"",0,"",NA,"","images/map07_PRGn_scaleDef_orientMir_000.png","disgust",1,7,7,"PRGn","orientMir","scaleDef","000",NA,NA
"","","","","","html-slider-response",33,235352,"0.0-29.0","r7gvr3dk2a",52,NA,"<div style=""width:500px;"">
                            <p style=""font-size:50px; font-weight:bold;""
                            >disgust</p>
                            <div style=""width:240px; margin: auto;"">
                                <img src=""images/map07_YlGn_scaleRev_orientDef_090.png"" style= ""width:200px""alt=""img"">
                            </div>
                        </div>",0.8775,"",0,"",NA,"","images/map07_YlGn_scaleRev_orientDef_090.png","disgust",1,7,7,"YlGn","orientDef","scaleRev","090",NA,NA
"","","","","","html-slider-response",34,238586,"0.0-30.0","r7gvr3dk2a",52,NA,"<div style=""width:500px;"">
                            <p style=""font-size:50px; font-weight:bold;""
                            >disgust</p>
                            <div style=""width:240px; margin: auto;"">
                                <img src=""images/map13_berlin_scaleDef_orientDef_180.png"" style= ""width:200px""alt=""img"">
                            </div>
                        </div>",1,"",0,"",NA,"","images/map13_berlin_scaleDef_orientDef_180.png","disgust",1,13,13,"berlin","orientDef","scaleDef","180",NA,NA
"","","","","","html-slider-response",35,241254,"0.0-31.0","r7gvr3dk2a",52,NA,"<div style=""width:500px;"">
                            <p style=""font-size:50px; font-weight:bold;""
                            >disgust</p>
                            <div style=""width:240px; margin: auto;"">
                                <img src=""images/map27_YlOrBr_scaleDef_orientDef_180.png"" style= ""width:200px""alt=""img"">
                            </div>
                        </div>",0.3525,"",0,"",NA,"","images/map27_YlOrBr_scaleDef_orientDef_180.png","disgust",1,27,27,"YlOrBr","orientDef","scaleDef","180",NA,NA
"","","","","","html-slider-response",36,243421,"0.0-32.0","r7gvr3dk2a",52,NA,"<div style=""width:500px;"">
                            <p style=""font-size:50px; font-weight:bold;""
                            >disgust</p>
                            <div style=""width:240px; margin: auto;"">
                                <img src=""images/map13_seismic_scaleDef_orientDef_000.png"" style= ""width:200px""alt=""img"">
                            </div>
                        </div>",1,"",0,"",NA,"","images/map13_seismic_scaleDef_orientDef_000.png","disgust",1,13,13,"seismic","orientDef","scaleDef","000",NA,NA
"","","","","","html-slider-response",37,245855,"0.0-33.0","r7gvr3dk2a",52,NA,"<div style=""width:500px;"">
                            <p style=""font-size:50px; font-weight:bold;""
                            >disgust</p>
                            <div style=""width:240px; margin: auto;"">
                                <img src=""images/map12_bwr_scaleDef_orientMir_180.png"" style= ""width:200px""alt=""img"">
                            </div>
                        </div>",1,"",0,"",NA,"","images/map12_bwr_scaleDef_orientMir_180.png","disgust",1,12,12,"bwr","orientMir","scaleDef","180",NA,NA
"","","","","","html-slider-response",38,248585,"0.0-34.0","r7gvr3dk2a",52,NA,"<div style=""width:500px;"">
                            <p style=""font-size:50px; font-weight:bold;""
                            >disgust</p>
                            <div style=""width:240px; margin: auto;"">
                                <img src=""images/map27_OrRd_scaleRev_orientMir_270.png"" style= ""width:200px""alt=""img"">
                            </div>
                        </div>",0.295,"",0,"",NA,"","images/map27_OrRd_scaleRev_orientMir_270.png","disgust",1,27,27,"OrRd","orientMir","scaleRev","270",NA,NA
"","","","","","html-slider-response",39,251205,"0.0-35.0","r7gvr3dk2a",52,NA,"<div style=""width:500px;"">
                            <p style=""font-size:50px; font-weight:bold;""
                            >disgust</p>
                            <div style=""width:240px; margin: auto;"">
                                <img src=""images/map27_YlOrBr_scaleRev_orientDef_270.png"" style= ""width:200px""alt=""img"">
                            </div>
                        </div>",0,"",0,"",NA,"","images/map27_YlOrBr_scaleRev_orientDef_270.png","disgust",1,27,27,"YlOrBr","orientDef","scaleRev","270",NA,NA
"","","","","","html-slider-response",40,254054,"0.0-36.0","r7gvr3dk2a",52,NA,"<div style=""width:500px;"">
                            <p style=""font-size:50px; font-weight:bold;""
                            >disgust</p>
                            <div style=""width:240px; margin: auto;"">
                                <img src=""images/map02_BuPu_scaleDef_orientMir_000.png"" style= ""width:200px""alt=""img"">
                            </div>
                        </div>",0.595,"",0,"",NA,"","images/map02_BuPu_scaleDef_orientMir_000.png","disgust",1,2,2,"BuPu","orientMir","scaleDef","000",NA,NA
"","","","","","html-slider-response",41,256153,"0.0-37.0","r7gvr3dk2a",52,NA,"<div style=""width:500px;"">
                            <p style=""font-size:50px; font-weight:bold;""
                            >disgust</p>
                            <div style=""width:240px; margin: auto;"">
                                <img src=""images/map26_Purples_scaleDef_orientDef_000.png"" style= ""width:200px""alt=""img"">
                            </div>
                        </div>",0.635,"",0,"",NA,"","images/map26_Purples_scaleDef_orientDef_000.png","disgust",1,26,26,"Purples","orientDef","scaleDef","000",NA,NA
"","","","","","html-slider-response",42,258453,"0.0-38.0","r7gvr3dk2a",52,NA,"<div style=""width:500px;"">
                            <p style=""font-size:50px; font-weight:bold;""
                            >disgust</p>
                            <div style=""width:240px; margin: auto;"">
                                <img src=""images/map10_RdYlBu_scaleDef_orientMir_180.png"" style= ""width:200px""alt=""img"">
                            </div>
                        </div>",0.795,"",0,"",NA,"","images/map10_RdYlBu_scaleDef_orientMir_180.png","disgust",1,10,10,"RdYlBu","orientMir","scaleDef","180",NA,NA
"","","","","","html-slider-response",43,260836,"0.0-39.0","r7gvr3dk2a",52,NA,"<div style=""width:500px;"">
                            <p style=""font-size:50px; font-weight:bold;""
                            >disgust</p>
                            <div style=""width:240px; margin: auto;"">
                                <img src=""images/map07_BrBG_scaleRev_orientMir_270.png"" style= ""width:200px""alt=""img"">
                            </div>
                        </div>",0.44,"",0,"",NA,"","images/map07_BrBG_scaleRev_orientMir_270.png","disgust",1,7,7,"BrBG","orientMir","scaleRev","270",NA,NA
"","","","","","html-slider-response",44,263436,"0.0-40.0","r7gvr3dk2a",52,NA,"<div style=""width:500px;"">
                            <p style=""font-size:50px; font-weight:bold;""
                            >disgust</p>
                            <div style=""width:240px; margin: auto;"">
                                <img src=""images/map15_viridis_scaleRev_orientMir_090.png"" style= ""width:200px""alt=""img"">
                            </div>
                        </div>",0.6175,"",0,"",NA,"","images/map15_viridis_scaleRev_orientMir_090.png","disgust",1,15,15,"viridis","orientMir","scaleRev","090",NA,NA
"","","","","","html-slider-response",45,266653,"0.0-41.0","r7gvr3dk2a",52,NA,"<div style=""width:500px;"">
                            <p style=""font-size:50px; font-weight:bold;""
                            >disgust</p>
                            <div style=""width:240px; margin: auto;"">
                                <img src=""images/map07_PRGn_scaleRev_orientMir_090.png"" style= ""width:200px""alt=""img"">
                            </div>
                        </div>",0.6375,"",0,"",NA,"","images/map07_PRGn_scaleRev_orientMir_090.png","disgust",1,7,7,"PRGn","orientMir","scaleRev","090",NA,NA
"","","","","","html-slider-response",46,269436,"0.0-42.0","r7gvr3dk2a",52,NA,"<div style=""width:500px;"">
                            <p style=""font-size:50px; font-weight:bold;""
                            >disgust</p>
                            <div style=""width:240px; margin: auto;"">
                                <img src=""images/map13_vanimo_scaleDef_orientMir_180.png"" style= ""width:200px""alt=""img"">
                            </div>
                        </div>",0.835,"",0,"",NA,"","images/map13_vanimo_scaleDef_orientMir_180.png","disgust",1,13,13,"vanimo","orientMir","scaleDef","180",NA,NA
"","","","","","html-slider-response",47,271937,"0.0-43.0","r7gvr3dk2a",52,NA,"<div style=""width:500px;"">
                            <p style=""font-size:50px; font-weight:bold;""
                            >disgust</p>
                            <div style=""width:240px; margin: auto;"">
                                <img src=""images/map26_Blues_scaleRev_orientDef_270.png"" style= ""width:200px""alt=""img"">
                            </div>
                        </div>",0,"",0,"",NA,"","images/map26_Blues_scaleRev_orientDef_270.png","disgust",1,26,26,"Blues","orientDef","scaleRev","270",NA,NA
"","","","","","html-slider-response",48,274119,"0.0-44.0","r7gvr3dk2a",52,NA,"<div style=""width:500px;"">
                            <p style=""font-size:50px; font-weight:bold;""
                            >disgust</p>
                            <div style=""width:240px; margin: auto;"">
                                <img src=""images/map12_coolwarm_scaleRev_orientMir_090.png"" style= ""width:200px""alt=""img"">
                            </div>
                        </div>",1,"",0,"",NA,"","images/map12_coolwarm_scaleRev_orientMir_090.png","disgust",1,12,12,"coolwarm","orientMir","scaleRev","090",NA,NA
"","","","","","html-slider-response",49,276138,"0.0-45.0","r7gvr3dk2a",52,NA,"<div style=""width:500px;"">
                            <p style=""font-size:50px; font-weight:bold;""
                            >disgust</p>
                            <div style=""width:240px; margin: auto;"">
                                <img src=""images/map12_coolwarm_scaleDef_orientMir_000.png"" style= ""width:200px""alt=""img"">
                            </div>
                        </div>",1,"",0,"",NA,"","images/map12_coolwarm_scaleDef_orientMir_000.png","disgust",1,12,12,"coolwarm","orientMir","scaleDef","000",NA,NA
"","","","","","html-slider-response",50,279938,"0.0-46.0","r7gvr3dk2a",52,NA,"<div style=""width:500px;"">
                            <p style=""font-size:50px; font-weight:bold;""
                            >disgust</p>
                            <div style=""width:240px; margin: auto;"">
                                <img src=""images/map15_turbo_scaleRev_orientDef_270.png"" style= ""width:200px""alt=""img"">
                            </div>
                        </div>",0.8,"",0,"",NA,"","images/map15_turbo_scaleRev_orientDef_270.png","disgust",1,15,15,"turbo","orientDef","scaleRev","270",NA,NA
"","","","","","html-slider-response",51,282538,"0.0-47.0","r7gvr3dk2a",52,NA,"<div style=""width:500px;"">
                            <p style=""font-size:50px; font-weight:bold;""
                            >disgust</p>
                            <div style=""width:240px; margin: auto;"">
                                <img src=""images/map05_PuBu_scaleRev_orientDef_090.png"" style= ""width:200px""alt=""img"">
                            </div>
                        </div>",0,"",0,"",NA,"","images/map05_PuBu_scaleRev_orientDef_090.png","disgust",1,5,5,"PuBu","orientDef","scaleRev","090",NA,NA
"","","","","","html-slider-response",52,285004,"0.0-48.0","r7gvr3dk2a",52,NA,"<div style=""width:500px;"">
                            <p style=""font-size:50px; font-weight:bold;""
                            >disgust</p>
                            <div style=""width:240px; margin: auto;"">
                                <img src=""images/map07_BrBG_scaleDef_orientMir_180.png"" style= ""width:200px""alt=""img"">
                            </div>
                        </div>",0.7025,"",0,"",NA,"","images/map07_BrBG_scaleDef_orientMir_180.png","disgust",1,7,7,"BrBG","orientMir","scaleDef","180",NA,NA
"","","","","","html-slider-response",53,287703,"0.0-49.0","r7gvr3dk2a",52,NA,"<div style=""width:500px;"">
                            <p style=""font-size:50px; font-weight:bold;""
                            >disgust</p>
                            <div style=""width:240px; margin: auto;"">
                                <img src=""images/map05_PuBuGn_scaleDef_orientMir_000.png"" style= ""width:200px""alt=""img"">
                            </div>
                        </div>",0,"",0,"",NA,"","images/map05_PuBuGn_scaleDef_orientMir_000.png","disgust",1,5,5,"PuBuGn","orientMir","scaleDef","000",NA,NA
"","","","","","html-slider-response",54,291169,"0.0-50.0","r7gvr3dk2a",52,NA,"<div style=""width:500px;"">
                            <p style=""font-size:50px; font-weight:bold;""
                            >disgust</p>
                            <div style=""width:240px; margin: auto;"">
                                <img src=""images/map15_gist_earth_scaleRev_orientDef_090.png"" style= ""width:200px""alt=""img"">
                            </div>
                        </div>",0.36,"",0,"",NA,"","images/map15_gist_earth_scaleRev_orientDef_090.png","disgust",1,15,15,"gist","scaleRev","earth","orientDef",NA,NA
"","","","","","html-slider-response",55,293405,"0.0-51.0","r7gvr3dk2a",52,NA,"<div style=""width:500px;"">
                            <p style=""font-size:50px; font-weight:bold;""
                            >disgust</p>
                            <div style=""width:240px; margin: auto;"">
                                <img src=""images/map13_managua_scaleRev_orientMir_090.png"" style= ""width:200px""alt=""img"">
                            </div>
                        </div>",0.7775,"",0,"",NA,"","images/map13_managua_scaleRev_orientMir_090.png","disgust",1,13,13,"managua","orientMir","scaleRev","090",NA,NA
"","","","","","html-slider-response",56,297537,"0.0-52.0","r7gvr3dk2a",52,NA,"<div style=""width:500px;"">
                            <p style=""font-size:50px; font-weight:bold;""
                            >disgust</p>
                            <div style=""width:240px; margin: auto;"">
                                <img src=""images/map26_Oranges_scaleRev_orientMir_270.png"" style= ""width:200px""alt=""img"">
                            </div>
                        </div>",0.64,"",0,"",NA,"","images/map26_Oranges_scaleRev_orientMir_270.png","disgust",1,26,26,"Oranges","orientMir","scaleRev","270",NA,NA
"","","","","","html-slider-response",57,299555,"0.0-53.0","r7gvr3dk2a",52,NA,"<div style=""width:500px;"">
                            <p style=""font-size:50px; font-weight:bold;""
                            >disgust</p>
                            <div style=""width:240px; margin: auto;"">
                                <img src=""images/map12_bwr_scaleRev_orientMir_270.png"" style= ""width:200px""alt=""img"">
                            </div>
                        </div>",1,"",0,"",NA,"","images/map12_bwr_scaleRev_orientMir_270.png","disgust",1,12,12,"bwr","orientMir","scaleRev","270",NA,NA
"","","","","","html-button-response",58,303459,"0.0-54.0","r7gvr3dk2a",52,3401,"<p>You are doing great!<br></br> You are halway done with the current block. When you are ready to continue, click the 'Continue' button.</p>",0.5,"",NA,"",NA,"","","",NA,NA,NA,"","","","",NA,NA
"","","","","","html-slider-response",59,306553,"0.0-55.0","r7gvr3dk2a",52,NA,"<div style=""width:500px;"">
                            <p style=""font-size:50px; font-weight:bold;""
                            >disgust</p>
                            <div style=""width:240px; margin: auto;"">
                                <img src=""images/map27_YlOrRd_scaleDef_orientMir_000.png"" style= ""width:200px""alt=""img"">
                            </div>
                        </div>",0.4075,"",0,"",NA,"","images/map27_YlOrRd_scaleDef_orientMir_000.png","disgust",1,27,27,"YlOrRd","orientMir","scaleDef","000",NA,NA
"","","","","","html-slider-response",60,309103,"0.0-56.0","r7gvr3dk2a",52,NA,"<div style=""width:500px;"">
                            <p style=""font-size:50px; font-weight:bold;""
                            >disgust</p>
                            <div style=""width:240px; margin: auto;"">
                                <img src=""images/map12_Spectral_scaleRev_orientDef_270.png"" style= ""width:200px""alt=""img"">
                            </div>
                        </div>",1,"",0,"",NA,"","images/map12_Spectral_scaleRev_orientDef_270.png","disgust",1,12,12,"Spectral","orientDef","scaleRev","270",NA,NA
"","","","","","html-slider-response",61,311738,"0.0-57.0","r7gvr3dk2a",52,NA,"<div style=""width:500px;"">
                            <p style=""font-size:50px; font-weight:bold;""
                            >disgust</p>
                            <div style=""width:240px; margin: auto;"">
                                <img src=""images/map13_managua_scaleDef_orientMir_000.png"" style= ""width:200px""alt=""img"">
                            </div>
                        </div>",0.705,"",0,"",NA,"","images/map13_managua_scaleDef_orientMir_000.png","disgust",1,13,13,"managua","orientMir","scaleDef","000",NA,NA
"","","","","","html-slider-response",62,314836,"0.0-58.0","r7gvr3dk2a",52,NA,"<div style=""width:500px;"">
                            <p style=""font-size:50px; font-weight:bold;""
                            >disgust</p>
                            <div style=""width:240px; margin: auto;"">
                                <img src=""images/map05_YlGnBu_scaleDef_orientDef_180.png"" style= ""width:200px""alt=""img"">
                            </div>
                        </div>",0.215,"",0,"",NA,"","images/map05_YlGnBu_scaleDef_orientDef_180.png","disgust",1,5,5,"YlGnBu","orientDef","scaleDef","180",NA,NA
"","","","","","html-slider-response",63,318490,"0.0-59.0","r7gvr3dk2a",52,NA,"<div style=""width:500px;"">
                            <p style=""font-size:50px; font-weight:bold;""
                            >disgust</p>
                            <div style=""width:240px; margin: auto;"">
                                <img src=""images/map10_RdBu_scaleRev_orientMir_090.png"" style= ""width:200px""alt=""img"">
                            </div>
                        </div>",0.8525,"",0,"",NA,"","images/map10_RdBu_scaleRev_orientMir_090.png","disgust",1,10,10,"RdBu","orientMir","scaleRev","090",NA,NA
"","","","","","html-slider-response",64,321736,"0.0-60.0","r7gvr3dk2a",52,NA,"<div style=""width:500px;"">
                            <p style=""font-size:50px; font-weight:bold;""
                            >disgust</p>
                            <div style=""width:240px; margin: auto;"">
                                <img src=""images/map15_viridis_scaleDef_orientMir_000.png"" style= ""width:200px""alt=""img"">
                            </div>
                        </div>",0.5775,"",0,"",NA,"","images/map15_viridis_scaleDef_orientMir_000.png","disgust",1,15,15,"viridis","orientMir","scaleDef","000",NA,NA
"","","","","","html-slider-response",65,323970,"0.0-61.0","r7gvr3dk2a",52,NA,"<div style=""width:500px;"">
                            <p style=""font-size:50px; font-weight:bold;""
                            >disgust</p>
                            <div style=""width:240px; margin: auto;"">
                                <img src=""images/map23_cividis_scaleRev_orientMir_090.png"" style= ""width:200px""alt=""img"">
                            </div>
                        </div>",0.4675,"",0,"",NA,"","images/map23_cividis_scaleRev_orientMir_090.png","disgust",1,23,23,"cividis","orientMir","scaleRev","090",NA,NA
"","","","","","html-slider-response",66,327470,"0.0-62.0","r7gvr3dk2a",52,NA,"<div style=""width:500px;"">
                            <p style=""font-size:50px; font-weight:bold;""
                            >disgust</p>
                            <div style=""width:240px; margin: auto;"">
                                <img src=""images/map02_RdPu_scaleRev_orientDef_270.png"" style= ""width:200px""alt=""img"">
                            </div>
                        </div>",0.27,"",0,"",NA,"","images/map02_RdPu_scaleRev_orientDef_270.png","disgust",1,2,2,"RdPu","orientDef","scaleRev","270",NA,NA
"","","","","","html-slider-response",67,329904,"0.0-63.0","r7gvr3dk2a",52,NA,"<div style=""width:500px;"">
                            <p style=""font-size:50px; font-weight:bold;""
                            >disgust</p>
                            <div style=""width:240px; margin: auto;"">
                                <img src=""images/map02_RdPu_scaleDef_orientDef_180.png"" style= ""width:200px""alt=""img"">
                            </div>
                        </div>",0.175,"",0,"",NA,"","images/map02_RdPu_scaleDef_orientDef_180.png","disgust",1,2,2,"RdPu","orientDef","scaleDef","180",NA,NA
"","","","","","html-slider-response",68,332586,"0.0-64.0","r7gvr3dk2a",52,NA,"<div style=""width:500px;"">
                            <p style=""font-size:50px; font-weight:bold;""
                            >disgust</p>
                            <div style=""width:240px; margin: auto;"">
                                <img src=""images/map23_inferno_scaleDef_orientDef_000.png"" style= ""width:200px""alt=""img"">
                            </div>
                        </div>",0.4225,"",0,"",NA,"","images/map23_inferno_scaleDef_orientDef_000.png","disgust",1,23,23,"inferno","orientDef","scaleDef","000",NA,NA
"","","","","","html-slider-response",69,336937,"0.0-65.0","r7gvr3dk2a",52,NA,"<div style=""width:500px;"">
                            <p style=""font-size:50px; font-weight:bold;""
                            >disgust</p>
                            <div style=""width:240px; margin: auto;"">
                                <img src=""images/map27_Reds_scaleDef_orientDef_000.png"" style= ""width:200px""alt=""img"">
                            </div>
                        </div>",0.425,"",0,"",NA,"","images/map27_Reds_scaleDef_orientDef_000.png","disgust",1,27,27,"Reds","orientDef","scaleDef","000",NA,NA
"","","","","","html-slider-response",70,338886,"0.0-66.0","r7gvr3dk2a",52,NA,"<div style=""width:500px;"">
                            <p style=""font-size:50px; font-weight:bold;""
                            >disgust</p>
                            <div style=""width:240px; margin: auto;"">
                                <img src=""images/map15_turbo_scaleDef_orientDef_180.png"" style= ""width:200px""alt=""img"">
                            </div>
                        </div>",1,"",0,"",NA,"","images/map15_turbo_scaleDef_orientDef_180.png","disgust",1,15,15,"turbo","orientDef","scaleDef","180",NA,NA
"","","","","","html-slider-response",71,343119,"0.0-67.0","r7gvr3dk2a",52,NA,"<div style=""width:500px;"">
                            <p style=""font-size:50px; font-weight:bold;""
                            >disgust</p>
                            <div style=""width:240px; margin: auto;"">
                                <img src=""images/map27_YlOrRd_scaleRev_orientMir_090.png"" style= ""width:200px""alt=""img"">
                            </div>
                        </div>",0.455,"",0,"",NA,"","images/map27_YlOrRd_scaleRev_orientMir_090.png","disgust",1,27,27,"YlOrRd","orientMir","scaleRev","090",NA,NA
"","","","","","html-slider-response",72,345952,"0.0-68.0","r7gvr3dk2a",52,NA,"<div style=""width:500px;"">
                            <p style=""font-size:50px; font-weight:bold;""
                            >disgust</p>
                            <div style=""width:240px; margin: auto;"">
                                <img src=""images/map05_YlGnBu_scaleRev_orientDef_270.png"" style= ""width:200px""alt=""img"">
                            </div>
                        </div>",0.0275,"",0,"",NA,"","images/map05_YlGnBu_scaleRev_orientDef_270.png","disgust",1,5,5,"YlGnBu","orientDef","scaleRev","270",NA,NA
"","","","","","html-slider-response",73,350887,"0.0-69.0","r7gvr3dk2a",52,NA,"<div style=""width:500px;"">
                            <p style=""font-size:50px; font-weight:bold;""
                            >disgust</p>
                            <div style=""width:240px; margin: auto;"">
                                <img src=""images/map27_OrRd_scaleDef_orientMir_180.png"" style= ""width:200px""alt=""img"">
                            </div>
                        </div>",0.425,"",0,"",NA,"","images/map27_OrRd_scaleDef_orientMir_180.png","disgust",1,27,27,"OrRd","orientMir","scaleDef","180",NA,NA
"","","","","","html-slider-response",74,353520,"0.0-70.0","r7gvr3dk2a",52,NA,"<div style=""width:500px;"">
                            <p style=""font-size:50px; font-weight:bold;""
                            >disgust</p>
                            <div style=""width:240px; margin: auto;"">
                                <img src=""images/map12_RdYlGn_scaleRev_orientDef_090.png"" style= ""width:200px""alt=""img"">
                            </div>
                        </div>",0.9175,"",0,"",NA,"","images/map12_RdYlGn_scaleRev_orientDef_090.png","disgust",1,12,12,"RdYlGn","orientDef","scaleRev","090",NA,NA
"","","","","","html-slider-response",75,355972,"0.0-71.0","r7gvr3dk2a",52,NA,"<div style=""width:500px;"">
                            <p style=""font-size:50px; font-weight:bold;""
                            >disgust</p>
                            <div style=""width:240px; margin: auto;"">
                                <img src=""images/map26_Oranges_scaleDef_orientMir_180.png"" style= ""width:200px""alt=""img"">
                            </div>
                        </div>",0.275,"",0,"",NA,"","images/map26_Oranges_scaleDef_orientMir_180.png","disgust",1,26,26,"Oranges","orientMir","scaleDef","180",NA,NA
"","","","","","html-slider-response",76,358238,"0.0-72.0","r7gvr3dk2a",52,NA,"<div style=""width:500px;"">
                            <p style=""font-size:50px; font-weight:bold;""
                            >disgust</p>
                            <div style=""width:240px; margin: auto;"">
                                <img src=""images/map07_PiYG_scaleDef_orientDef_180.png"" style= ""width:200px""alt=""img"">
                            </div>
                        </div>",1,"",0,"",NA,"","images/map07_PiYG_scaleDef_orientDef_180.png","disgust",1,7,7,"PiYG","orientDef","scaleDef","180",NA,NA
"","","","","","html-slider-response",77,360636,"0.0-73.0","r7gvr3dk2a",52,NA,"<div style=""width:500px;"">
                            <p style=""font-size:50px; font-weight:bold;""
                            >disgust</p>
                            <div style=""width:240px; margin: auto;"">
                                <img src=""images/map02_PuRd_scaleDef_orientDef_000.png"" style= ""width:200px""alt=""img"">
                            </div>
                        </div>",0.39,"",0,"",NA,"","images/map02_PuRd_scaleDef_orientDef_000.png","disgust",1,2,2,"PuRd","orientDef","scaleDef","000",NA,NA
"","","","","","html-slider-response",78,363636,"0.0-74.0","r7gvr3dk2a",52,NA,"<div style=""width:500px;"">
                            <p style=""font-size:50px; font-weight:bold;""
                            >disgust</p>
                            <div style=""width:240px; margin: auto;"">
                                <img src=""images/map12_RdYlGn_scaleDef_orientDef_000.png"" style= ""width:200px""alt=""img"">
                            </div>
                        </div>",0.935,"",0,"",NA,"","images/map12_RdYlGn_scaleDef_orientDef_000.png","disgust",1,12,12,"RdYlGn","orientDef","scaleDef","000",NA,NA
"","","","","","html-slider-response",79,366736,"0.0-75.0","r7gvr3dk2a",52,NA,"<div style=""width:500px;"">
                            <p style=""font-size:50px; font-weight:bold;""
                            >disgust</p>
                            <div style=""width:240px; margin: auto;"">
                                <img src=""images/map15_plasma_scaleDef_orientMir_180.png"" style= ""width:200px""alt=""img"">
                            </div>
                        </div>",0.875,"",0,"",NA,"","images/map15_plasma_scaleDef_orientMir_180.png","disgust",1,15,15,"plasma","orientMir","scaleDef","180",NA,NA
"","","","","","html-slider-response",80,369087,"0.0-76.0","r7gvr3dk2a",52,NA,"<div style=""width:500px;"">
                            <p style=""font-size:50px; font-weight:bold;""
                            >disgust</p>
                            <div style=""width:240px; margin: auto;"">
                                <img src=""images/map26_Greens_scaleDef_orientMir_000.png"" style= ""width:200px""alt=""img"">
                            </div>
                        </div>",0.295,"",0,"",NA,"","images/map26_Greens_scaleDef_orientMir_000.png","disgust",1,26,26,"Greens","orientMir","scaleDef","000",NA,NA
"","","","","","html-slider-response",81,371189,"0.0-77.0","r7gvr3dk2a",52,NA,"<div style=""width:500px;"">
                            <p style=""font-size:50px; font-weight:bold;""
                            >disgust</p>
                            <div style=""width:240px; margin: auto;"">
                                <img src=""images/map15_gist_earth_scaleDef_orientDef_000.png"" style= ""width:200px""alt=""img"">
                            </div>
                        </div>",0.415,"",0,"",NA,"","images/map15_gist_earth_scaleDef_orientDef_000.png","disgust",1,15,15,"gist","scaleDef","earth","orientDef",NA,NA
"","","","","","html-slider-response",82,373153,"0.0-78.0","r7gvr3dk2a",52,NA,"<div style=""width:500px;"">
                            <p style=""font-size:50px; font-weight:bold;""
                            >disgust</p>
                            <div style=""width:240px; margin: auto;"">
                                <img src=""images/map12_Spectral_scaleDef_orientDef_180.png"" style= ""width:200px""alt=""img"">
                            </div>
                        </div>",0.985,"",0,"",NA,"","images/map12_Spectral_scaleDef_orientDef_180.png","disgust",1,12,12,"Spectral","orientDef","scaleDef","180",NA,NA
"","","","","","html-slider-response",83,376029,"0.0-79.0","r7gvr3dk2a",52,NA,"<div style=""width:500px;"">
                            <p style=""font-size:50px; font-weight:bold;""
                            >disgust</p>
                            <div style=""width:240px; margin: auto;"">
                                <img src=""images/map07_PiYG_scaleRev_orientDef_270.png"" style= ""width:200px""alt=""img"">
                            </div>
                        </div>",1,"",0,"",NA,"","images/map07_PiYG_scaleRev_orientDef_270.png","disgust",1,7,7,"PiYG","orientDef","scaleRev","270",NA,NA
"","","","","","html-slider-response",84,378838,"0.0-80.0","r7gvr3dk2a",52,NA,"<div style=""width:500px;"">
                            <p style=""font-size:50px; font-weight:bold;""
                            >disgust</p>
                            <div style=""width:240px; margin: auto;"">
                                <img src=""images/map10_RdGy_scaleDef_orientDef_180.png"" style= ""width:200px""alt=""img"">
                            </div>
                        </div>",0.355,"",0,"",NA,"","images/map10_RdGy_scaleDef_orientDef_180.png","disgust",1,10,10,"RdGy","orientDef","scaleDef","180",NA,NA
"","","","","","html-slider-response",85,381988,"0.0-81.0","r7gvr3dk2a",52,NA,"<div style=""width:500px;"">
                            <p style=""font-size:50px; font-weight:bold;""
                            >disgust</p>
                            <div style=""width:240px; margin: auto;"">
                                <img src=""images/map10_RdBu_scaleDef_orientMir_000.png"" style= ""width:200px""alt=""img"">
                            </div>
                        </div>",0.425,"",0,"",NA,"","images/map10_RdBu_scaleDef_orientMir_000.png","disgust",1,10,10,"RdBu","orientMir","scaleDef","000",NA,NA
"","","","","","html-slider-response",86,384586,"0.0-82.0","r7gvr3dk2a",52,NA,"<div style=""width:500px;"">
                            <p style=""font-size:50px; font-weight:bold;""
                            >disgust</p>
                            <div style=""width:240px; margin: auto;"">
                                <img src=""images/map10_RdGy_scaleRev_orientDef_270.png"" style= ""width:200px""alt=""img"">
                            </div>
                        </div>",0.2,"",0,"",NA,"","images/map10_RdGy_scaleRev_orientDef_270.png","disgust",1,10,10,"RdGy","orientDef","scaleRev","270",NA,NA
"","","","","","html-slider-response",87,387753,"0.0-83.0","r7gvr3dk2a",52,NA,"<div style=""width:500px;"">
                            <p style=""font-size:50px; font-weight:bold;""
                            >disgust</p>
                            <div style=""width:240px; margin: auto;"">
                                <img src=""images/map02_GnBu_scaleDef_orientMir_180.png"" style= ""width:200px""alt=""img"">
                            </div>
                        </div>",0.2075,"",0,"",NA,"","images/map02_GnBu_scaleDef_orientMir_180.png","disgust",1,2,2,"GnBu","orientMir","scaleDef","180",NA,NA
"","","","","","html-slider-response",88,390269,"0.0-84.0","r7gvr3dk2a",52,NA,"<div style=""width:500px;"">
                            <p style=""font-size:50px; font-weight:bold;""
                            >disgust</p>
                            <div style=""width:240px; margin: auto;"">
                                <img src=""images/map23_magma_scaleRev_orientDef_270.png"" style= ""width:200px""alt=""img"">
                            </div>
                        </div>",0.4375,"",0,"",NA,"","images/map23_magma_scaleRev_orientDef_270.png","disgust",1,23,23,"magma","orientDef","scaleRev","270",NA,NA
"","","","","","html-slider-response",89,392904,"0.0-85.0","r7gvr3dk2a",52,NA,"<div style=""width:500px;"">
                            <p style=""font-size:50px; font-weight:bold;""
                            >disgust</p>
                            <div style=""width:240px; margin: auto;"">
                                <img src=""images/map26_Purples_scaleRev_orientDef_090.png"" style= ""width:200px""alt=""img"">
                            </div>
                        </div>",0,"",0,"",NA,"","images/map26_Purples_scaleRev_orientDef_090.png","disgust",1,26,26,"Purples","orientDef","scaleRev","090",NA,NA
"","","","","","html-slider-response",90,396672,"0.0-86.0","r7gvr3dk2a",52,NA,"<div style=""width:500px;"">
                            <p style=""font-size:50px; font-weight:bold;""
                            >disgust</p>
                            <div style=""width:240px; margin: auto;"">
                                <img src=""images/map10_RdYlBu_scaleRev_orientMir_270.png"" style= ""width:200px""alt=""img"">
                            </div>
                        </div>",0.4525,"",0,"",NA,"","images/map10_RdYlBu_scaleRev_orientMir_270.png","disgust",1,10,10,"RdYlBu","orientMir","scaleRev","270",NA,NA
"","","","","","html-slider-response",91,398837,"0.0-87.0","r7gvr3dk2a",52,NA,"<div style=""width:500px;"">
                            <p style=""font-size:50px; font-weight:bold;""
                            >disgust</p>
                            <div style=""width:240px; margin: auto;"">
                                <img src=""images/map13_vanimo_scaleRev_orientMir_270.png"" style= ""width:200px""alt=""img"">
                            </div>
                        </div>",0.625,"",0,"",NA,"","images/map13_vanimo_scaleRev_orientMir_270.png","disgust",1,13,13,"vanimo","orientMir","scaleRev","270",NA,NA
"","","","","","html-slider-response",92,401586,"0.0-88.0","r7gvr3dk2a",52,NA,"<div style=""width:500px;"">
                            <p style=""font-size:50px; font-weight:bold;""
                            >disgust</p>
                            <div style=""width:240px; margin: auto;"">
                                <img src=""images/map07_YlGn_scaleDef_orientDef_000.png"" style= ""width:200px""alt=""img"">
                            </div>
                        </div>",0.445,"",0,"",NA,"","images/map07_YlGn_scaleDef_orientDef_000.png","disgust",1,7,7,"YlGn","orientDef","scaleDef","000",NA,NA
"","","","","","html-slider-response",93,404487,"0.0-89.0","r7gvr3dk2a",52,NA,"<div style=""width:500px;"">
                            <p style=""font-size:50px; font-weight:bold;""
                            >disgust</p>
                            <div style=""width:240px; margin: auto;"">
                                <img src=""images/map02_GnBu_scaleRev_orientMir_270.png"" style= ""width:200px""alt=""img"">
                            </div>
                        </div>",0,"",0,"",NA,"","images/map02_GnBu_scaleRev_orientMir_270.png","disgust",1,2,2,"GnBu","orientMir","scaleRev","270",NA,NA
"","","","","","html-slider-response",94,406703,"0.0-90.0","r7gvr3dk2a",52,NA,"<div style=""width:500px;"">
                            <p style=""font-size:50px; font-weight:bold;""
                            >disgust</p>
                            <div style=""width:240px; margin: auto;"">
                                <img src=""images/map02_PuRd_scaleRev_orientDef_090.png"" style= ""width:200px""alt=""img"">
                            </div>
                        </div>",0.155,"",0,"",NA,"","images/map02_PuRd_scaleRev_orientDef_090.png","disgust",1,2,2,"PuRd","orientDef","scaleRev","090",NA,NA
"","","","","","html-slider-response",95,409037,"0.0-91.0","r7gvr3dk2a",52,NA,"<div style=""width:500px;"">
                            <p style=""font-size:50px; font-weight:bold;""
                            >disgust</p>
                            <div style=""width:240px; margin: auto;"">
                                <img src=""images/map26_Blues_scaleDef_orientDef_180.png"" style= ""width:200px""alt=""img"">
                            </div>
                        </div>",0,"",0,"",NA,"","images/map26_Blues_scaleDef_orientDef_180.png","disgust",1,26,26,"Blues","orientDef","scaleDef","180",NA,NA
"","","","","","html-slider-response",96,411453,"0.0-92.0","r7gvr3dk2a",52,NA,"<div style=""width:500px;"">
                            <p style=""font-size:50px; font-weight:bold;""
                            >disgust</p>
                            <div style=""width:240px; margin: auto;"">
                                <img src=""images/map05_PuBuGn_scaleRev_orientMir_090.png"" style= ""width:200px""alt=""img"">
                            </div>
                        </div>",0,"",0,"",NA,"","images/map05_PuBuGn_scaleRev_orientMir_090.png","disgust",1,5,5,"PuBuGn","orientMir","scaleRev","090",NA,NA
"","","","","","html-slider-response",97,415087,"0.0-93.0","r7gvr3dk2a",52,NA,"<div style=""width:500px;"">
                            <p style=""font-size:50px; font-weight:bold;""
                            >disgust</p>
                            <div style=""width:240px; margin: auto;"">
                                <img src=""images/map10_PuOr_scaleDef_orientDef_000.png"" style= ""width:200px""alt=""img"">
                            </div>
                        </div>",0.335,"",0,"",NA,"","images/map10_PuOr_scaleDef_orientDef_000.png","disgust",1,10,10,"PuOr","orientDef","scaleDef","000",NA,NA
"","","","","","html-slider-response",98,417487,"0.0-94.0","r7gvr3dk2a",52,NA,"<div style=""width:500px;"">
                            <p style=""font-size:50px; font-weight:bold;""
                            >disgust</p>
                            <div style=""width:240px; margin: auto;"">
                                <img src=""images/map23_inferno_scaleRev_orientDef_090.png"" style= ""width:200px""alt=""img"">
                            </div>
                        </div>",0.5675,"",0,"",NA,"","images/map23_inferno_scaleRev_orientDef_090.png","disgust",1,23,23,"inferno","orientDef","scaleRev","090",NA,NA
"","","","","","html-button-response",99,420126,"0.0-95.0","r7gvr3dk2a",52,2135,"<p>Great Job! You've finished block 1.<br></br> You have 4 block(s) left to go.<br></br></p>",0.5,"",NA,"",NA,"","","",NA,NA,NA,"","","","",NA,NA
"","","","","","html-button-response",100,421042,"0.0-96.0","r7gvr3dk2a",52,915,"<p>In this block of trials, you will be asked to rate how much you associate each map with:</p > <p style = 'font-size:150%; font-weight: bold'>sad</p><br></br>",0.5,"",NA,"",NA,"","","",NA,NA,NA,"","","","",NA,NA
"","","","","","html-slider-response",101,422989,"0.0-97.0","r7gvr3dk2a",52,NA,"<div style=""width:500px;"">
                            <p style=""font-size:50px; font-weight:bold;""
                            >sad</p>
                            <div style=""width:240px; margin: auto;"">
                                <img src=""images/map23_Greys_scaleRev_orientMir_270.png"" style= ""width:200px""alt=""img"">
                            </div>
                        </div>",1,"",0,"",NA,"","images/map23_Greys_scaleRev_orientMir_270.png","sad",1,23,23,"Greys","orientMir","scaleRev","270",NA,NA
"","","","","","html-slider-response",102,425322,"0.0-98.0","r7gvr3dk2a",52,NA,"<div style=""width:500px;"">
                            <p style=""font-size:50px; font-weight:bold;""
                            >sad</p>
                            <div style=""width:240px; margin: auto;"">
                                <img src=""images/map05_PuBu_scaleRev_orientDef_090.png"" style= ""width:200px""alt=""img"">
                            </div>
                        </div>",0.66,"",0,"",NA,"","images/map05_PuBu_scaleRev_orientDef_090.png","sad",1,5,5,"PuBu","orientDef","scaleRev","090",NA,NA
"","","","","","html-slider-response",103,427388,"0.0-99.0","r7gvr3dk2a",52,NA,"<div style=""width:500px;"">
                            <p style=""font-size:50px; font-weight:bold;""
                            >sad</p>
                            <div style=""width:240px; margin: auto;"">
                                <img src=""images/map12_coolwarm_scaleRev_orientMir_090.png"" style= ""width:200px""alt=""img"">
                            </div>
                        </div>",0.32,"",0,"",NA,"","images/map12_coolwarm_scaleRev_orientMir_090.png","sad",1,12,12,"coolwarm","orientMir","scaleRev","090",NA,NA
"","","","","","html-slider-response",104,430720,"0.0-100.0","r7gvr3dk2a",52,NA,"<div style=""width:500px;"">
                            <p style=""font-size:50px; font-weight:bold;""
                            >sad</p>
                            <div style=""width:240px; margin: auto;"">
                                <img src=""images/map15_gist_earth_scaleDef_orientDef_000.png"" style= ""width:200px""alt=""img"">
                            </div>
                        </div>",0.415,"",0,"",NA,"","images/map15_gist_earth_scaleDef_orientDef_000.png","sad",1,15,15,"gist","scaleDef","earth","orientDef",NA,NA
"","","","","","html-slider-response",105,433453,"0.0-101.0","r7gvr3dk2a",52,NA,"<div style=""width:500px;"">
                            <p style=""font-size:50px; font-weight:bold;""
                            >sad</p>
                            <div style=""width:240px; margin: auto;"">
                                <img src=""images/map13_berlin_scaleRev_orientDef_270.png"" style= ""width:200px""alt=""img"">
                            </div>
                        </div>",0.625,"",0,"",NA,"","images/map13_berlin_scaleRev_orientDef_270.png","sad",1,13,13,"berlin","orientDef","scaleRev","270",NA,NA
"","","","","","html-slider-response",106,436003,"0.0-102.0","r7gvr3dk2a",52,NA,"<div style=""width:500px;"">
                            <p style=""font-size:50px; font-weight:bold;""
                            >sad</p>
                            <div style=""width:240px; margin: auto;"">
                                <img src=""images/map02_RdPu_scaleRev_orientDef_270.png"" style= ""width:200px""alt=""img"">
                            </div>
                        </div>",0.1175,"",0,"",NA,"","images/map02_RdPu_scaleRev_orientDef_270.png","sad",1,2,2,"RdPu","orientDef","scaleRev","270",NA,NA
"","","","","","html-slider-response",107,438137,"0.0-103.0","r7gvr3dk2a",52,NA,"<div style=""width:500px;"">
                            <p style=""font-size:50px; font-weight:bold;""
                            >sad</p>
                            <div style=""width:240px; margin: auto;"">
                                <img src=""images/map15_plasma_scaleRev_orientMir_270.png"" style= ""width:200px""alt=""img"">
                            </div>
                        </div>",0,"",0,"",NA,"","images/map15_plasma_scaleRev_orientMir_270.png","sad",1,15,15,"plasma","orientMir","scaleRev","270",NA,NA
"","","","","","html-slider-response",108,441337,"0.0-104.0","r7gvr3dk2a",52,NA,"<div style=""width:500px;"">
                            <p style=""font-size:50px; font-weight:bold;""
                            >sad</p>
                            <div style=""width:240px; margin: auto;"">
                                <img src=""images/map13_managua_scaleRev_orientMir_090.png"" style= ""width:200px""alt=""img"">
                            </div>
                        </div>",0.63,"",0,"",NA,"","images/map13_managua_scaleRev_orientMir_090.png","sad",1,13,13,"managua","orientMir","scaleRev","090",NA,NA
"","","","","","html-slider-response",109,444887,"0.0-105.0","r7gvr3dk2a",52,NA,"<div style=""width:500px;"">
                            <p style=""font-size:50px; font-weight:bold;""
                            >sad</p>
                            <div style=""width:240px; margin: auto;"">
                                <img src=""images/map10_RdBu_scaleRev_orientMir_090.png"" style= ""width:200px""alt=""img"">
                            </div>
                        </div>",0.325,"",0,"",NA,"","images/map10_RdBu_scaleRev_orientMir_090.png","sad",1,10,10,"RdBu","orientMir","scaleRev","090",NA,NA
"","","","","","html-slider-response",110,447470,"0.0-106.0","r7gvr3dk2a",52,NA,"<div style=""width:500px;"">
                            <p style=""font-size:50px; font-weight:bold;""
                            >sad</p>
                            <div style=""width:240px; margin: auto;"">
                                <img src=""images/map05_YlGnBu_scaleDef_orientDef_180.png"" style= ""width:200px""alt=""img"">
                            </div>
                        </div>",1,"",0,"",NA,"","images/map05_YlGnBu_scaleDef_orientDef_180.png","sad",1,5,5,"YlGnBu","orientDef","scaleDef","180",NA,NA
"","","","","","html-slider-response",111,449633,"0.0-107.0","r7gvr3dk2a",52,NA,"<div style=""width:500px;"">
                            <p style=""font-size:50px; font-weight:bold;""
                            >sad</p>
                            <div style=""width:240px; margin: auto;"">
                                <img src=""images/map05_PuBuGn_scaleDef_orientMir_000.png"" style= ""width:200px""alt=""img"">
                            </div>
                        </div>",0.87,"",0,"",NA,"","images/map05_PuBuGn_scaleDef_orientMir_000.png","sad",1,5,5,"PuBuGn","orientMir","scaleDef","000",NA,NA
"","","","","","html-slider-response",112,451900,"0.0-108.0","r7gvr3dk2a",52,NA,"<div style=""width:500px;"">
                            <p style=""font-size:50px; font-weight:bold;""
                            >sad</p>
                            <div style=""width:240px; margin: auto;"">
                                <img src=""images/map13_vanimo_scaleRev_orientMir_270.png"" style= ""width:200px""alt=""img"">
                            </div>
                        </div>",0.2725,"",0,"",NA,"","images/map13_vanimo_scaleRev_orientMir_270.png","sad",1,13,13,"vanimo","orientMir","scaleRev","270",NA,NA
"","","","","","html-slider-response",113,455632,"0.0-109.0","r7gvr3dk2a",52,NA,"<div style=""width:500px;"">
                            <p style=""font-size:50px; font-weight:bold;""
                            >sad</p>
                            <div style=""width:240px; margin: auto;"">
                                <img src=""images/map10_PuOr_scaleDef_orientDef_000.png"" style= ""width:200px""alt=""img"">
                            </div>
                        </div>",0.64,"",0,"",NA,"","images/map10_PuOr_scaleDef_orientDef_000.png","sad",1,10,10,"PuOr","orientDef","scaleDef","000",NA,NA
"","","","","","html-slider-response",114,458665,"0.0-110.0","r7gvr3dk2a",52,NA,"<div style=""width:500px;"">
                            <p style=""font-size:50px; font-weight:bold;""
                            >sad</p>
                            <div style=""width:240px; margin: auto;"">
                                <img src=""images/map10_RdYlBu_scaleDef_orientMir_180.png"" style= ""width:200px""alt=""img"">
                            </div>
                        </div>",0.4425,"",0,"",NA,"","images/map10_RdYlBu_scaleDef_orientMir_180.png","sad",1,10,10,"RdYlBu","orientMir","scaleDef","180",NA,NA
"","","","","","html-slider-response",115,463066,"0.0-111.0","r7gvr3dk2a",52,NA,"<div style=""width:500px;"">
                            <p style=""font-size:50px; font-weight:bold;""
                            >sad</p>
                            <div style=""width:240px; margin: auto;"">
                                <img src=""images/map27_Reds_scaleDef_orientDef_000.png"" style= ""width:200px""alt=""img"">
                            </div>
                        </div>",0.2375,"",0,"",NA,"","images/map27_Reds_scaleDef_orientDef_000.png","sad",1,27,27,"Reds","orientDef","scaleDef","000",NA,NA
"","","","","","html-slider-response",116,465700,"0.0-112.0","r7gvr3dk2a",52,NA,"<div style=""width:500px;"">
                            <p style=""font-size:50px; font-weight:bold;""
                            >sad</p>
                            <div style=""width:240px; margin: auto;"">
                                <img src=""images/map07_PRGn_scaleDef_orientMir_000.png"" style= ""width:200px""alt=""img"">
                            </div>
                        </div>",0.3825,"",0,"",NA,"","images/map07_PRGn_scaleDef_orientMir_000.png","sad",1,7,7,"PRGn","orientMir","scaleDef","000",NA,NA
"","","","","","html-slider-response",117,467650,"0.0-113.0","r7gvr3dk2a",52,NA,"<div style=""width:500px;"">
                            <p style=""font-size:50px; font-weight:bold;""
                            >sad</p>
                            <div style=""width:240px; margin: auto;"">
                                <img src=""images/map05_BuGn_scaleDef_orientMir_180.png"" style= ""width:200px""alt=""img"">
                            </div>
                        </div>",0.4975,"",0,"",NA,"","images/map05_BuGn_scaleDef_orientMir_180.png","sad",1,5,5,"BuGn","orientMir","scaleDef","180",NA,NA
"","","","","","html-slider-response",118,470881,"0.0-114.0","r7gvr3dk2a",52,NA,"<div style=""width:500px;"">
                            <p style=""font-size:50px; font-weight:bold;""
                            >sad</p>
                            <div style=""width:240px; margin: auto;"">
                                <img src=""images/map13_berlin_scaleDef_orientDef_180.png"" style= ""width:200px""alt=""img"">
                            </div>
                        </div>",0.4,"",0,"",NA,"","images/map13_berlin_scaleDef_orientDef_180.png","sad",1,13,13,"berlin","orientDef","scaleDef","180",NA,NA
"","","","","","html-slider-response",119,474499,"0.0-115.0","r7gvr3dk2a",52,NA,"<div style=""width:500px;"">
                            <p style=""font-size:50px; font-weight:bold;""
                            >sad</p>
                            <div style=""width:240px; margin: auto;"">
                                <img src=""images/map07_YlGn_scaleRev_orientDef_090.png"" style= ""width:200px""alt=""img"">
                            </div>
                        </div>",0.5375,"",0,"",NA,"","images/map07_YlGn_scaleRev_orientDef_090.png","sad",1,7,7,"YlGn","orientDef","scaleRev","090",NA,NA
"","","","","","html-slider-response",120,476932,"0.0-116.0","r7gvr3dk2a",52,NA,"<div style=""width:500px;"">
                            <p style=""font-size:50px; font-weight:bold;""
                            >sad</p>
                            <div style=""width:240px; margin: auto;"">
                                <img src=""images/map10_PuOr_scaleRev_orientDef_090.png"" style= ""width:200px""alt=""img"">
                            </div>
                        </div>",0.7325,"",0,"",NA,"","images/map10_PuOr_scaleRev_orientDef_090.png","sad",1,10,10,"PuOr","orientDef","scaleRev","090",NA,NA
"","","","","","html-slider-response",121,479149,"0.0-117.0","r7gvr3dk2a",52,NA,"<div style=""width:500px;"">
                            <p style=""font-size:50px; font-weight:bold;""
                            >sad</p>
                            <div style=""width:240px; margin: auto;"">
                                <img src=""images/map12_RdYlGn_scaleRev_orientDef_090.png"" style= ""width:200px""alt=""img"">
                            </div>
                        </div>",0,"",0,"",NA,"","images/map12_RdYlGn_scaleRev_orientDef_090.png","sad",1,12,12,"RdYlGn","orientDef","scaleRev","090",NA,NA
"","","","","","html-slider-response",122,481465,"0.0-118.0","r7gvr3dk2a",52,NA,"<div style=""width:500px;"">
                            <p style=""font-size:50px; font-weight:bold;""
                            >sad</p>
                            <div style=""width:240px; margin: auto;"">
                                <img src=""images/map12_coolwarm_scaleDef_orientMir_000.png"" style= ""width:200px""alt=""img"">
                            </div>
                        </div>",0.0225,"",0,"",NA,"","images/map12_coolwarm_scaleDef_orientMir_000.png","sad",1,12,12,"coolwarm","orientMir","scaleDef","000",NA,NA
"","","","","","html-slider-response",123,483815,"0.0-119.0","r7gvr3dk2a",52,NA,"<div style=""width:500px;"">
                            <p style=""font-size:50px; font-weight:bold;""
                            >sad</p>
                            <div style=""width:240px; margin: auto;"">
                                <img src=""images/map23_inferno_scaleDef_orientDef_000.png"" style= ""width:200px""alt=""img"">
                            </div>
                        </div>",0.375,"",0,"",NA,"","images/map23_inferno_scaleDef_orientDef_000.png","sad",1,23,23,"inferno","orientDef","scaleDef","000",NA,NA
"","","","","","html-slider-response",124,486181,"0.0-120.0","r7gvr3dk2a",52,NA,"<div style=""width:500px;"">
                            <p style=""font-size:50px; font-weight:bold;""
                            >sad</p>
                            <div style=""width:240px; margin: auto;"">
                                <img src=""images/map23_Greys_scaleDef_orientMir_180.png"" style= ""width:200px""alt=""img"">
                            </div>
                        </div>",0.9975,"",0,"",NA,"","images/map23_Greys_scaleDef_orientMir_180.png","sad",1,23,23,"Greys","orientMir","scaleDef","180",NA,NA
"","","","","","html-slider-response",125,488417,"0.0-121.0","r7gvr3dk2a",52,NA,"<div style=""width:500px;"">
                            <p style=""font-size:50px; font-weight:bold;""
                            >sad</p>
                            <div style=""width:240px; margin: auto;"">
                                <img src=""images/map23_cividis_scaleRev_orientMir_090.png"" style= ""width:200px""alt=""img"">
                            </div>
                        </div>",0.6925,"",0,"",NA,"","images/map23_cividis_scaleRev_orientMir_090.png","sad",1,23,23,"cividis","orientMir","scaleRev","090",NA,NA
"","","","","","html-slider-response",126,490617,"0.0-122.0","r7gvr3dk2a",52,NA,"<div style=""width:500px;"">
                            <p style=""font-size:50px; font-weight:bold;""
                            >sad</p>
                            <div style=""width:240px; margin: auto;"">
                                <img src=""images/map02_GnBu_scaleRev_orientMir_270.png"" style= ""width:200px""alt=""img"">
                            </div>
                        </div>",0.8325,"",0,"",NA,"","images/map02_GnBu_scaleRev_orientMir_270.png","sad",1,2,2,"GnBu","orientMir","scaleRev","270",NA,NA
"","","","","","html-slider-response",127,493248,"0.0-123.0","r7gvr3dk2a",52,NA,"<div style=""width:500px;"">
                            <p style=""font-size:50px; font-weight:bold;""
                            >sad</p>
                            <div style=""width:240px; margin: auto;"">
                                <img src=""images/map10_RdBu_scaleDef_orientMir_000.png"" style= ""width:200px""alt=""img"">
                            </div>
                        </div>",0.545,"",0,"",NA,"","images/map10_RdBu_scaleDef_orientMir_000.png","sad",1,10,10,"RdBu","orientMir","scaleDef","000",NA,NA
"","","","","","html-slider-response",128,496008,"0.0-124.0","r7gvr3dk2a",52,NA,"<div style=""width:500px;"">
                            <p style=""font-size:50px; font-weight:bold;""
                            >sad</p>
                            <div style=""width:240px; margin: auto;"">
                                <img src=""images/map23_cividis_scaleDef_orientMir_000.png"" style= ""width:200px""alt=""img"">
                            </div>
                        </div>",0.4275,"",0,"",NA,"","images/map23_cividis_scaleDef_orientMir_000.png","sad",1,23,23,"cividis","orientMir","scaleDef","000",NA,NA
"","","","","","html-slider-response",129,498032,"0.0-125.0","r7gvr3dk2a",52,NA,"<div style=""width:500px;"">
                            <p style=""font-size:50px; font-weight:bold;""
                            >sad</p>
                            <div style=""width:240px; margin: auto;"">
                                <img src=""images/map02_PuRd_scaleRev_orientDef_090.png"" style= ""width:200px""alt=""img"">
                            </div>
                        </div>",0.265,"",0,"",NA,"","images/map02_PuRd_scaleRev_orientDef_090.png","sad",1,2,2,"PuRd","orientDef","scaleRev","090",NA,NA
"","","","","","html-slider-response",130,500698,"0.0-126.0","r7gvr3dk2a",52,NA,"<div style=""width:500px;"">
                            <p style=""font-size:50px; font-weight:bold;""
                            >sad</p>
                            <div style=""width:240px; margin: auto;"">
                                <img src=""images/map07_PiYG_scaleRev_orientDef_270.png"" style= ""width:200px""alt=""img"">
                            </div>
                        </div>",0,"",0,"",NA,"","images/map07_PiYG_scaleRev_orientDef_270.png","sad",1,7,7,"PiYG","orientDef","scaleRev","270",NA,NA
"","","","","","html-slider-response",131,502815,"0.0-127.0","r7gvr3dk2a",52,NA,"<div style=""width:500px;"">
                            <p style=""font-size:50px; font-weight:bold;""
                            >sad</p>
                            <div style=""width:240px; margin: auto;"">
                                <img src=""images/map05_YlGnBu_scaleRev_orientDef_270.png"" style= ""width:200px""alt=""img"">
                            </div>
                        </div>",0.69,"",0,"",NA,"","images/map05_YlGnBu_scaleRev_orientDef_270.png","sad",1,5,5,"YlGnBu","orientDef","scaleRev","270",NA,NA
"","","","","","html-slider-response",132,504899,"0.0-128.0","r7gvr3dk2a",52,NA,"<div style=""width:500px;"">
                            <p style=""font-size:50px; font-weight:bold;""
                            >sad</p>
                            <div style=""width:240px; margin: auto;"">
                                <img src=""images/map07_PiYG_scaleDef_orientDef_180.png"" style= ""width:200px""alt=""img"">
                            </div>
                        </div>",0.3675,"",0,"",NA,"","images/map07_PiYG_scaleDef_orientDef_180.png","sad",1,7,7,"PiYG","orientDef","scaleDef","180",NA,NA
"","","","","","html-slider-response",133,506767,"0.0-129.0","r7gvr3dk2a",52,NA,"<div style=""width:500px;"">
                            <p style=""font-size:50px; font-weight:bold;""
                            >sad</p>
                            <div style=""width:240px; margin: auto;"">
                                <img src=""images/map02_PuRd_scaleDef_orientDef_000.png"" style= ""width:200px""alt=""img"">
                            </div>
                        </div>",0.075,"",0,"",NA,"","images/map02_PuRd_scaleDef_orientDef_000.png","sad",1,2,2,"PuRd","orientDef","scaleDef","000",NA,NA
"","","","","","html-slider-response",134,509564,"0.0-130.0","r7gvr3dk2a",52,NA,"<div style=""width:500px;"">
                            <p style=""font-size:50px; font-weight:bold;""
                            >sad</p>
                            <div style=""width:240px; margin: auto;"">
                                <img src=""images/map27_OrRd_scaleRev_orientMir_270.png"" style= ""width:200px""alt=""img"">
                            </div>
                        </div>",0.4025,"",0,"",NA,"","images/map27_OrRd_scaleRev_orientMir_270.png","sad",1,27,27,"OrRd","orientMir","scaleRev","270",NA,NA
"","","","","","html-slider-response",135,511699,"0.0-131.0","r7gvr3dk2a",52,NA,"<div style=""width:500px;"">
                            <p style=""font-size:50px; font-weight:bold;""
                            >sad</p>
                            <div style=""width:240px; margin: auto;"">
                                <img src=""images/map10_RdYlBu_scaleRev_orientMir_270.png"" style= ""width:200px""alt=""img"">
                            </div>
                        </div>",0.55,"",0,"",NA,"","images/map10_RdYlBu_scaleRev_orientMir_270.png","sad",1,10,10,"RdYlBu","orientMir","scaleRev","270",NA,NA
"","","","","","html-slider-response",136,513514,"0.0-132.0","r7gvr3dk2a",52,NA,"<div style=""width:500px;"">
                            <p style=""font-size:50px; font-weight:bold;""
                            >sad</p>
                            <div style=""width:240px; margin: auto;"">
                                <img src=""images/map26_Greens_scaleRev_orientMir_090.png"" style= ""width:200px""alt=""img"">
                            </div>
                        </div>",0.3525,"",0,"",NA,"","images/map26_Greens_scaleRev_orientMir_090.png","sad",1,26,26,"Greens","orientMir","scaleRev","090",NA,NA
"","","","","","html-slider-response",137,515784,"0.0-133.0","r7gvr3dk2a",52,NA,"<div style=""width:500px;"">
                            <p style=""font-size:50px; font-weight:bold;""
                            >sad</p>
                            <div style=""width:240px; margin: auto;"">
                                <img src=""images/map23_magma_scaleDef_orientDef_180.png"" style= ""width:200px""alt=""img"">
                            </div>
                        </div>",0,"",0,"",NA,"","images/map23_magma_scaleDef_orientDef_180.png","sad",1,23,23,"magma","orientDef","scaleDef","180",NA,NA
"","","","","","html-slider-response",138,517831,"0.0-134.0","r7gvr3dk2a",52,NA,"<div style=""width:500px;"">
                            <p style=""font-size:50px; font-weight:bold;""
                            >sad</p>
                            <div style=""width:240px; margin: auto;"">
                                <img src=""images/map26_Purples_scaleDef_orientDef_000.png"" style= ""width:200px""alt=""img"">
                            </div>
                        </div>",1,"",0,"",NA,"","images/map26_Purples_scaleDef_orientDef_000.png","sad",1,26,26,"Purples","orientDef","scaleDef","000",NA,NA
"","","","","","html-slider-response",139,519981,"0.0-135.0","r7gvr3dk2a",52,NA,"<div style=""width:500px;"">
                            <p style=""font-size:50px; font-weight:bold;""
                            >sad</p>
                            <div style=""width:240px; margin: auto;"">
                                <img src=""images/map05_PuBuGn_scaleRev_orientMir_090.png"" style= ""width:200px""alt=""img"">
                            </div>
                        </div>",0.84,"",0,"",NA,"","images/map05_PuBuGn_scaleRev_orientMir_090.png","sad",1,5,5,"PuBuGn","orientMir","scaleRev","090",NA,NA
"","","","","","html-slider-response",140,521899,"0.0-136.0","r7gvr3dk2a",52,NA,"<div style=""width:500px;"">
                            <p style=""font-size:50px; font-weight:bold;""
                            >sad</p>
                            <div style=""width:240px; margin: auto;"">
                                <img src=""images/map26_Greens_scaleDef_orientMir_000.png"" style= ""width:200px""alt=""img"">
                            </div>
                        </div>",0.355,"",0,"",NA,"","images/map26_Greens_scaleDef_orientMir_000.png","sad",1,26,26,"Greens","orientMir","scaleDef","000",NA,NA
"","","","","","html-button-response",141,524071,"0.0-137.0","r7gvr3dk2a",52,1668,"<p>You are doing great!<br></br> You are halway done with the current block. When you are ready to continue, click the 'Continue' button.</p>",0.5,"",NA,"",NA,"","","",NA,NA,NA,"","","","",NA,NA
"","","","","","html-slider-response",142,525816,"0.0-138.0","r7gvr3dk2a",52,NA,"<div style=""width:500px;"">
                            <p style=""font-size:50px; font-weight:bold;""
                            >sad</p>
                            <div style=""width:240px; margin: auto;"">
                                <img src=""images/map02_BuPu_scaleDef_orientMir_000.png"" style= ""width:200px""alt=""img"">
                            </div>
                        </div>",1,"",0,"",NA,"","images/map02_BuPu_scaleDef_orientMir_000.png","sad",1,2,2,"BuPu","orientMir","scaleDef","000",NA,NA
"","","","","","html-slider-response",143,528865,"0.0-139.0","r7gvr3dk2a",52,NA,"<div style=""width:500px;"">
                            <p style=""font-size:50px; font-weight:bold;""
                            >sad</p>
                            <div style=""width:240px; margin: auto;"">
                                <img src=""images/map07_YlGn_scaleDef_orientDef_000.png"" style= ""width:200px""alt=""img"">
                            </div>
                        </div>",0.0775,"",0,"",NA,"","images/map07_YlGn_scaleDef_orientDef_000.png","sad",1,7,7,"YlGn","orientDef","scaleDef","000",NA,NA
"","","","","","html-slider-response",144,532750,"0.0-140.0","r7gvr3dk2a",52,NA,"<div style=""width:500px;"">
                            <p style=""font-size:50px; font-weight:bold;""
                            >sad</p>
                            <div style=""width:240px; margin: auto;"">
                                <img src=""images/map27_YlOrBr_scaleRev_orientDef_270.png"" style= ""width:200px""alt=""img"">
                            </div>
                        </div>",0.105,"",0,"",NA,"","images/map27_YlOrBr_scaleRev_orientDef_270.png","sad",1,27,27,"YlOrBr","orientDef","scaleRev","270",NA,NA
"","","","","","html-slider-response",145,534680,"0.0-141.0","r7gvr3dk2a",52,NA,"<div style=""width:500px;"">
                            <p style=""font-size:50px; font-weight:bold;""
                            >sad</p>
                            <div style=""width:240px; margin: auto;"">
                                <img src=""images/map15_turbo_scaleRev_orientDef_270.png"" style= ""width:200px""alt=""img"">
                            </div>
                        </div>",0,"",0,"",NA,"","images/map15_turbo_scaleRev_orientDef_270.png","sad",1,15,15,"turbo","orientDef","scaleRev","270",NA,NA
"","","","","","html-slider-response",146,536782,"0.0-142.0","r7gvr3dk2a",52,NA,"<div style=""width:500px;"">
                            <p style=""font-size:50px; font-weight:bold;""
                            >sad</p>
                            <div style=""width:240px; margin: auto;"">
                                <img src=""images/map13_managua_scaleDef_orientMir_000.png"" style= ""width:200px""alt=""img"">
                            </div>
                        </div>",0.615,"",0,"",NA,"","images/map13_managua_scaleDef_orientMir_000.png","sad",1,13,13,"managua","orientMir","scaleDef","000",NA,NA
"","","","","","html-slider-response",147,540965,"0.0-143.0","r7gvr3dk2a",52,NA,"<div style=""width:500px;"">
                            <p style=""font-size:50px; font-weight:bold;""
                            >sad</p>
                            <div style=""width:240px; margin: auto;"">
                                <img src=""images/map27_Reds_scaleRev_orientDef_090.png"" style= ""width:200px""alt=""img"">
                            </div>
                        </div>",0,"",0,"",NA,"","images/map27_Reds_scaleRev_orientDef_090.png","sad",1,27,27,"Reds","orientDef","scaleRev","090",NA,NA
"","","","","","html-slider-response",148,544199,"0.0-144.0","r7gvr3dk2a",52,NA,"<div style=""width:500px;"">
                            <p style=""font-size:50px; font-weight:bold;""
                            >sad</p>
                            <div style=""width:240px; margin: auto;"">
                                <img src=""images/map15_turbo_scaleDef_orientDef_180.png"" style= ""width:200px""alt=""img"">
                            </div>
                        </div>",0.2125,"",0,"",NA,"","images/map15_turbo_scaleDef_orientDef_180.png","sad",1,15,15,"turbo","orientDef","scaleDef","180",NA,NA
"","","","","","html-slider-response",149,546998,"0.0-145.0","r7gvr3dk2a",52,NA,"<div style=""width:500px;"">
                            <p style=""font-size:50px; font-weight:bold;""
                            >sad</p>
                            <div style=""width:240px; margin: auto;"">
                                <img src=""images/map10_RdGy_scaleRev_orientDef_270.png"" style= ""width:200px""alt=""img"">
                            </div>
                        </div>",0.915,"",0,"",NA,"","images/map10_RdGy_scaleRev_orientDef_270.png","sad",1,10,10,"RdGy","orientDef","scaleRev","270",NA,NA
"","","","","","html-slider-response",150,549216,"0.0-146.0","r7gvr3dk2a",52,NA,"<div style=""width:500px;"">
                            <p style=""font-size:50px; font-weight:bold;""
                            >sad</p>
                            <div style=""width:240px; margin: auto;"">
                                <img src=""images/map12_bwr_scaleDef_orientMir_180.png"" style= ""width:200px""alt=""img"">
                            </div>
                        </div>",0,"",0,"",NA,"","images/map12_bwr_scaleDef_orientMir_180.png","sad",1,12,12,"bwr","orientMir","scaleDef","180",NA,NA
"","","","","","html-slider-response",151,550916,"0.0-147.0","r7gvr3dk2a",52,NA,"<div style=""width:500px;"">
                            <p style=""font-size:50px; font-weight:bold;""
                            >sad</p>
                            <div style=""width:240px; margin: auto;"">
                                <img src=""images/map12_Spectral_scaleRev_orientDef_270.png"" style= ""width:200px""alt=""img"">
                            </div>
                        </div>",0.005,"",0,"",NA,"","images/map12_Spectral_scaleRev_orientDef_270.png","sad",1,12,12,"Spectral","orientDef","scaleRev","270",NA,NA
"","","","","","html-slider-response",152,552798,"0.0-148.0","r7gvr3dk2a",52,NA,"<div style=""width:500px;"">
                            <p style=""font-size:50px; font-weight:bold;""
                            >sad</p>
                            <div style=""width:240px; margin: auto;"">
                                <img src=""images/map23_magma_scaleRev_orientDef_270.png"" style= ""width:200px""alt=""img"">
                            </div>
                        </div>",0.5575,"",0,"",NA,"","images/map23_magma_scaleRev_orientDef_270.png","sad",1,23,23,"magma","orientDef","scaleRev","270",NA,NA
"","","","","","html-slider-response",153,554632,"0.0-149.0","r7gvr3dk2a",52,NA,"<div style=""width:500px;"">
                            <p style=""font-size:50px; font-weight:bold;""
                            >sad</p>
                            <div style=""width:240px; margin: auto;"">
                                <img src=""images/map27_YlOrRd_scaleRev_orientMir_090.png"" style= ""width:200px""alt=""img"">
                            </div>
                        </div>",0,"",0,"",NA,"","images/map27_YlOrRd_scaleRev_orientMir_090.png","sad",1,27,27,"YlOrRd","orientMir","scaleRev","090",NA,NA
"","","","","","html-slider-response",154,556433,"0.0-150.0","r7gvr3dk2a",52,NA,"<div style=""width:500px;"">
                            <p style=""font-size:50px; font-weight:bold;""
                            >sad</p>
                            <div style=""width:240px; margin: auto;"">
                                <img src=""images/map23_inferno_scaleRev_orientDef_090.png"" style= ""width:200px""alt=""img"">
                            </div>
                        </div>",0.3925,"",0,"",NA,"","images/map23_inferno_scaleRev_orientDef_090.png","sad",1,23,23,"inferno","orientDef","scaleRev","090",NA,NA
"","","","","","html-slider-response",155,558114,"0.0-151.0","r7gvr3dk2a",52,NA,"<div style=""width:500px;"">
                            <p style=""font-size:50px; font-weight:bold;""
                            >sad</p>
                            <div style=""width:240px; margin: auto;"">
                                <img src=""images/map27_OrRd_scaleDef_orientMir_180.png"" style= ""width:200px""alt=""img"">
                            </div>
                        </div>",0.2675,"",0,"",NA,"","images/map27_OrRd_scaleDef_orientMir_180.png","sad",1,27,27,"OrRd","orientMir","scaleDef","180",NA,NA
"","","","","","html-slider-response",156,559715,"0.0-152.0","r7gvr3dk2a",52,NA,"<div style=""width:500px;"">
                            <p style=""font-size:50px; font-weight:bold;""
                            >sad</p>
                            <div style=""width:240px; margin: auto;"">
                                <img src=""images/map15_viridis_scaleRev_orientMir_090.png"" style= ""width:200px""alt=""img"">
                            </div>
                        </div>",0.4375,"",0,"",NA,"","images/map15_viridis_scaleRev_orientMir_090.png","sad",1,15,15,"viridis","orientMir","scaleRev","090",NA,NA
"","","","","","html-slider-response",157,561948,"0.0-153.0","r7gvr3dk2a",52,NA,"<div style=""width:500px;"">
                            <p style=""font-size:50px; font-weight:bold;""
                            >sad</p>
                            <div style=""width:240px; margin: auto;"">
                                <img src=""images/map26_Oranges_scaleDef_orientMir_180.png"" style= ""width:200px""alt=""img"">
                            </div>
                        </div>",0.3,"",0,"",NA,"","images/map26_Oranges_scaleDef_orientMir_180.png","sad",1,26,26,"Oranges","orientMir","scaleDef","180",NA,NA
"","","","","","html-slider-response",158,564382,"0.0-154.0","r7gvr3dk2a",52,NA,"<div style=""width:500px;"">
                            <p style=""font-size:50px; font-weight:bold;""
                            >sad</p>
                            <div style=""width:240px; margin: auto;"">
                                <img src=""images/map27_YlOrRd_scaleDef_orientMir_000.png"" style= ""width:200px""alt=""img"">
                            </div>
                        </div>",0.1025,"",0,"",NA,"","images/map27_YlOrRd_scaleDef_orientMir_000.png","sad",1,27,27,"YlOrRd","orientMir","scaleDef","000",NA,NA
"","","","","","html-slider-response",159,566917,"0.0-155.0","r7gvr3dk2a",52,NA,"<div style=""width:500px;"">
                            <p style=""font-size:50px; font-weight:bold;""
                            >sad</p>
                            <div style=""width:240px; margin: auto;"">
                                <img src=""images/map07_PRGn_scaleRev_orientMir_090.png"" style= ""width:200px""alt=""img"">
                            </div>
                        </div>",0.33,"",0,"",NA,"","images/map07_PRGn_scaleRev_orientMir_090.png","sad",1,7,7,"PRGn","orientMir","scaleRev","090",NA,NA
"","","","","","html-slider-response",160,569815,"0.0-156.0","r7gvr3dk2a",52,NA,"<div style=""width:500px;"">
                            <p style=""font-size:50px; font-weight:bold;""
                            >sad</p>
                            <div style=""width:240px; margin: auto;"">
                                <img src=""images/map26_Purples_scaleRev_orientDef_090.png"" style= ""width:200px""alt=""img"">
                            </div>
                        </div>",0.91,"",0,"",NA,"","images/map26_Purples_scaleRev_orientDef_090.png","sad",1,26,26,"Purples","orientDef","scaleRev","090",NA,NA
"","","","","","html-slider-response",161,572614,"0.0-157.0","r7gvr3dk2a",52,NA,"<div style=""width:500px;"">
                            <p style=""font-size:50px; font-weight:bold;""
                            >sad</p>
                            <div style=""width:240px; margin: auto;"">
                                <img src=""images/map07_BrBG_scaleRev_orientMir_270.png"" style= ""width:200px""alt=""img"">
                            </div>
                        </div>",0.4725,"",0,"",NA,"","images/map07_BrBG_scaleRev_orientMir_270.png","sad",1,7,7,"BrBG","orientMir","scaleRev","270",NA,NA
"","","","","","html-slider-response",162,575397,"0.0-158.0","r7gvr3dk2a",52,NA,"<div style=""width:500px;"">
                            <p style=""font-size:50px; font-weight:bold;""
                            >sad</p>
                            <div style=""width:240px; margin: auto;"">
                                <img src=""images/map12_RdYlGn_scaleDef_orientDef_000.png"" style= ""width:200px""alt=""img"">
                            </div>
                        </div>",0.055,"",0,"",NA,"","images/map12_RdYlGn_scaleDef_orientDef_000.png","sad",1,12,12,"RdYlGn","orientDef","scaleDef","000",NA,NA
