"success","timeout","failed_images","failed_audio","failed_video","trial_type","trial_index","time_elapsed","internal_node_id","subject_id","condition_num","rt","stimulus","response","question_order","slider_start","practiceTrial","practiceTrialNum","correct","image_path","concept","repetition","map_id","map_num","scale_name","orientation_code","mapping_code","rotation_code","ishihara_plate","correct_response"
"true","false","[]","[]","[]","preload",0,822,"0.0-0.0","m0p2gjfznd",16,NA,"",NA,"",NA,"",NA,"","","",NA,NA,NA,"","","","",NA,NA
"","","","","","html-button-response",1,7631,"0.0-1.0","m0p2gjfznd",16,6807,"Welcome to our experiment!<p>At the bottom of this screen, you will see a button that says ""Begin Experiment"".<br>Please only click that button when you are ready to complete the 30 minute experiment in one sitting.</p><p> Once you click that button, it will not be possible to restart the experiment.",0.5,"",NA,"",NA,"","","",NA,NA,NA,"","","","",NA,NA
"true","","","","","fullscreen",2,9999,"0.0-2.0","m0p2gjfznd",16,1365,"",NA,"",NA,"",NA,"","","",NA,NA,NA,"","","","",NA,NA
"","","","","","survey-multi-select",3,16916,"0.0-3.0","m0p2gjfznd",16,6913,"",NA,"[0]",NA,"",NA,"","","",NA,NA,NA,"","","","",NA,NA
"","","","","","html-button-response",4,19997,"0.0-4.0","m0p2gjfznd",16,3079,"Welcome! <p> This experiment involves two parts: demographic information, followed by the experimental task.<p> It will take about 30 minutes to complete both parts.",0.5,"",NA,"",NA,"","","",NA,NA,NA,"","","","",NA,NA
"","","","","","survey-text",5,30298,"0.0-5.0","m0p2gjfznd",16,10296,"",NA,"",NA,"",NA,"","","",NA,NA,NA,"","","","",NA,NA
"","","","","","html-slider-response",6,44464,"0.0-6.0","m0p2gjfznd",16,14162,"<div style='text-align:left; font-size:20px; line-height:25px; width: 1000px;'>
                                During this experiment you will be asked to rate how much you associate maps with                    different concepts.<br> Below, you can see some examples of the maps you will be asked to rate. Above the maps
                    is the list of concepts.<br>You will be asked                    to rate how much you associate each map with each concept on a scale from 'not at all' to 'very much' like the
                    one below. <br><br>
                    Now, please look at the list of concepts and maps. For each concept, think about the map you associate 'very
                    much' with the concept.<br>                     When you see that map during the experiment, please rate it near the 'very much' endpoint of the
                    scale.<br>Now, please think about which map you associate 'not at all'                     with each concept. When you see that map during the experiment, please rate it near the 'not at all' endpoint
                    of the scale.<br>
                    Please use the full range of the scale. That is, if a map is somewhat associated with the concept, you would
                    click partway between the middle point and right side of the scale.                    You will be asked to rate each map for a given concept before moving on to the next concept.<br>Press the
                    'Continue' button for instructions on how to use the slider.                    <br>
                </div>

                <div style=""width: 500px; margin: 0 auto;"">
                    <!-- Centered text paragraphs -->
                    <div style=""text-align: center; width: 500px;"">
                        <p style=""font-size:25px; line-height:15px;"">
                            happy&nbsp;&nbsp;&nbsp;&nbsp;
                            angry&nbsp;&nbsp;&nbsp;&nbsp;
                            disgust&nbsp;&nbsp;&nbsp;&nbsp;
                            sad&nbsp;&nbsp;&nbsp;&nbsp;
                            fearful
                        </p>
                        <!-- <p style=""font-size:20px; line-height:15px;"">angry</p>
                        <p style=""font-size:20px;line-height:15px;"">disgust</p>
                        <p style=""font-size:20px;line-height:15px;"">sad</p>
                        <p style=""font-size:20px;line-height:15px;"">fearful</p> -->
                    </div>
            

                    <!-- Grid section -->
                   <div style=""display: flex; justify-content: center; padding-top: 15px;"">
                    <div style=""display: grid; grid-template-columns: repeat(10, 55px); grid-gap: 5px; width: auto;"">
                        <img src=""images/map27_RdYlGn_scaleRev_orientMir_090.png"" alt=""map"" style=""width: 100%;""><img src=""images/map23_YlGn_scaleRev_orientMir_090.png"" alt=""map"" style=""width: 100%;""><img src=""images/map07_plasma_scaleRev_orientDef_270.png"" alt=""map"" style=""width: 100%;""><img src=""images/map27_RdYlBu_scaleDef_orientDef_180.png"" alt=""map"" style=""width: 100%;""><img src=""images/map12_Reds_scaleDef_orientMir_000.png"" alt=""map"" style=""width: 100%;""><img src=""images/map02_seismic_scaleDef_orientMir_000.png"" alt=""map"" style=""width: 100%;""><img src=""images/map23_PiYG_scaleDef_orientMir_180.png"" alt=""map"" style=""width: 100%;""><img src=""images/map27_Spectral_scaleRev_orientMir_270.png"" alt=""map"" style=""width: 100%;""><img src=""images/map10_Greys_scaleDef_orientDef_180.png"" alt=""map"" style=""width: 100%;""><img src=""images/map07_inferno_scaleDef_orientMir_000.png"" alt=""map"" style=""width: 100%;""><img src=""images/map05_managua_scaleDef_orientDef_000.png"" alt=""map"" style=""width: 100%;""><img src=""images/map15_PuBu_scaleDef_orientMir_000.png"" alt=""map"" style=""width: 100%;""><img src=""images/map12_YlOrBr_scaleRev_orientMir_270.png"" alt=""map"" style=""width: 100%;""><img src=""images/map05_vanimo_scaleRev_orientDef_270.png"" alt=""map"" style=""width: 100%;""><img src=""images/map10_cividis_scaleRev_orientDef_090.png"" alt=""map"" style=""width: 100%;""><img src=""images/map13_RdPu_scaleRev_orientMir_270.png"" alt=""map"" style=""width: 100%;""><img src=""images/map10_Purples_scaleDef_orientMir_000.png"" alt=""map"" style=""width: 100%;""><img src=""images/map23_BuGn_scaleDef_orientDef_180.png"" alt=""map"" style=""width: 100%;""><img src=""images/map26_BrBG_scaleDef_orientDef_180.png"" alt=""map"" style=""width: 100%;""><img src=""images/map02_bwr_scaleDef_orientDef_180.png"" alt=""map"" style=""width: 100%;""><img src=""images/map26_PRGn_scaleDef_orientDef_000.png"" alt=""map"" style=""width: 100%;""><img src=""images/map10_Blues_scaleRev_orientMir_270.png"" alt=""map"" style=""width: 100%;""><img src=""images/map12_Oranges_scaleRev_orientDef_270.png"" alt=""map"" style=""width: 100%;""><img src=""images/map15_BuPu_scaleRev_orientDef_090.png"" alt=""map"" style=""width: 100%;""><img src=""images/map07_magma_scaleDef_orientMir_180.png"" alt=""map"" style=""width: 100%;""><img src=""images/map13_YlOrRd_scaleRev_orientDef_090.png"" alt=""map"" style=""width: 100%;""><img src=""images/map02_berlin_scaleDef_orientMir_180.png"" alt=""map"" style=""width: 100%;""><img src=""images/map15_GnBu_scaleDef_orientDef_180.png"" alt=""map"" style=""width: 100%;""><img src=""images/map15_YlGnBu_scaleDef_orientMir_180.png"" alt=""map"" style=""width: 100%;""><img src=""images/map13_OrRd_scaleDef_orientDef_180.png"" alt=""map"" style=""width: 100%;""><img src=""images/map07_viridis_scaleDef_orientDef_000.png"" alt=""map"" style=""width: 100%;""><img src=""images/map13_PuRd_scaleRev_orientMir_090.png"" alt=""map"" style=""width: 100%;""><img src=""images/map12_Greens_scaleRev_orientDef_090.png"" alt=""map"" style=""width: 100%;""><img src=""images/map05_gist_earth_scaleRev_orientMir_090.png"" alt=""map"" style=""width: 100%;""><img src=""images/map26_RdGy_scaleRev_orientMir_270.png"" alt=""map"" style=""width: 100%;""><img src=""images/map02_coolwarm_scaleDef_orientDef_000.png"" alt=""map"" style=""width: 100%;""><img src=""images/map26_PuOr_scaleRev_orientMir_090.png"" alt=""map"" style=""width: 100%;""><img src=""images/map23_PuBuGn_scaleRev_orientDef_090.png"" alt=""map"" style=""width: 100%;""><img src=""images/map05_turbo_scaleRev_orientMir_270.png"" alt=""map"" style=""width: 100%;""><img src=""images/map27_RdBu_scaleDef_orientDef_000.png"" alt=""map"" style=""width: 100%;"">
                    </div>
                </div>

                    <!-- Clear floats -->
                    <div style=""clear: both;""></div>
                </div>
                            ",NA,"",0,"true",NA,"","","",NA,NA,NA,"","","","",NA,NA
"","","","","","html-button-response",7,55414,"0.0-7.0","m0p2gjfznd",16,10948,"<div style=""width:800px;""><p style=""text-align:left"">To move the slider, click and drag your cursor to the location of the scale where you would like to make your rating and then let go. When you let go of the slider, your response will be recorded and the next trial will begin. <br>
                    We are interested in your initial impressions of each map for the given concept, so please go with your first intuition. <br>
                    Before you begin the experiment, there will be four training trials for you to practice using the scale. <br>
                     When you are ready to start the training trials, please click ""Continue"".</p><br></div>",0.5,"",NA,"",NA,"","","",NA,NA,NA,"","","","",NA,NA
"","","","","","html-slider-response",8,58475,"0.0-8.0-0.0","m0p2gjfznd",16,NA,"<div style=""width:500px;"">
                                    <p style=""font-size:25px;"">Please move the slider all the way to the <br> right endpoint of the scale</p>

                                    </div>
                                </div>",1,"",0,"true",0,"true","","",NA,NA,NA,"","","","",NA,NA
"","","","","","html-button-response",9,60030,"0.0-8.0-1.0","m0p2gjfznd",16,1051,"<p align='center'><b>Good job!</b> Click on 'Continue' to proceed.</p>",0.5,"",NA,"",NA,"","","",NA,NA,NA,"","","","",NA,NA
"","","","","","html-slider-response",10,62224,"0.0-9.0-0.0","m0p2gjfznd",16,NA,"<div style=""width:500px;"">
                                    <p style=""font-size:25px;"">Please move the slider all the way to the <br> left endpoint of the scale</p>

                                    </div>
                                </div>",0,"",0,"true",1,"true","","",NA,NA,NA,"","","","",NA,NA
"","","","","","html-button-response",11,63463,"0.0-9.0-1.0","m0p2gjfznd",16,736,"<p align='center'><b>Good job!</b> Click on 'Continue' to proceed.</p>",0.5,"",NA,"",NA,"","","",NA,NA,NA,"","","","",NA,NA
"","","","","","html-slider-response",12,66941,"0.0-10.0-0.0","m0p2gjfznd",16,NA,"<div style=""width:500px;"">
                                    <p style=""font-size:25px;"">Please move the slider halfway between the center and right endpoint of the scale</p>

                                    </div>
                                </div>",0.7925,"",0,"true",2,"false","","",NA,NA,NA,"","","","",NA,NA
"","","","","","html-button-response",13,70280,"0.0-10.0-1.0","m0p2gjfznd",16,2836,"<p align='center'><b>Not quite!</b> The slider was not placed near the instructed located. Click on 'Continue' to try again. </p>",0.5,"",NA,"",NA,"","","",NA,NA,NA,"","","","",NA,NA
"","","","","","html-slider-response",14,75458,"0.0-10.1-0.1","m0p2gjfznd",16,NA,"<div style=""width:500px;"">
                                    <p style=""font-size:25px;"">Please move the slider halfway between the center and right endpoint of the scale</p>

                                    </div>
                                </div>",0.7675,"",0,"true",2,"true","","",NA,NA,NA,"","","","",NA,NA
"","","","","","html-button-response",15,76747,"0.0-10.1-1.1","m0p2gjfznd",16,786,"<p align='center'><b>Good job!</b> Click on 'Continue' to proceed.</p>",0.5,"",NA,"",NA,"","","",NA,NA,NA,"","","","",NA,NA
"","","","","","html-slider-response",16,80875,"0.0-11.0-0.0","m0p2gjfznd",16,NA,"<div style=""width:500px;"">
                                    <p style=""font-size:25px;"">Please move the slider halfway between the center and left endpoint of the scale</p>

                                    </div>
                                </div>",0.2425,"",0,"true",3,"true","","",NA,NA,NA,"","","","",NA,NA
"","","","","","html-button-response",17,82563,"0.0-11.0-1.0","m0p2gjfznd",16,1187,"<p align='center'><b>Good job!</b> Click on 'Continue' to proceed.</p>",0.5,"",NA,"",NA,"","","",NA,NA,NA,"","","","",NA,NA
"","","","","","html-button-response",18,83463,"0.0-12.0","m0p2gjfznd",16,899,"<p>Great job! You've completed the practice trials. Now you will begin the main task.</p>",0.5,"",NA,"",NA,"","","",NA,NA,NA,"","","","",NA,NA
"","","","","","html-button-response",19,85680,"0.0-13.0","m0p2gjfznd",16,2215,"<p>In this block of trials, you will be asked to rate how much you associate each map with:</p > <p style = 'font-size:150%; font-weight: bold'>happy</p><br></br>",0.5,"",NA,"",NA,"","","",NA,NA,NA,"","","","",NA,NA
"","","","","","html-slider-response",20,87591,"0.0-14.0","m0p2gjfznd",16,NA,"<div style=""width:500px;"">
                            <p style=""font-size:50px; font-weight:bold;""
                            >happy</p>
                            <div style=""width:240px; margin: auto;"">
                                <img src=""images/map07_inferno_scaleRev_orientMir_090.png"" style= ""width:200px""alt=""img"">
                            </div>
                        </div>",1,"",0,"",NA,"","images/map07_inferno_scaleRev_orientMir_090.png","happy",1,7,7,"inferno","orientMir","scaleRev","090",NA,NA
"","","","","","html-slider-response",21,90524,"0.0-15.0","m0p2gjfznd",16,NA,"<div style=""width:500px;"">
                            <p style=""font-size:50px; font-weight:bold;""
                            >happy</p>
                            <div style=""width:240px; margin: auto;"">
                                <img src=""images/map15_GnBu_scaleRev_orientDef_270.png"" style= ""width:200px""alt=""img"">
                            </div>
                        </div>",0.895,"",0,"",NA,"","images/map15_GnBu_scaleRev_orientDef_270.png","happy",1,15,15,"GnBu","orientDef","scaleRev","270",NA,NA
"","","","","","html-slider-response",22,93341,"0.0-16.0","m0p2gjfznd",16,NA,"<div style=""width:500px;"">
                            <p style=""font-size:50px; font-weight:bold;""
                            >happy</p>
                            <div style=""width:240px; margin: auto;"">
                                <img src=""images/map27_Spectral_scaleRev_orientMir_270.png"" style= ""width:200px""alt=""img"">
                            </div>
                        </div>",1,"",0,"",NA,"","images/map27_Spectral_scaleRev_orientMir_270.png","happy",1,27,27,"Spectral","orientMir","scaleRev","270",NA,NA
"","","","","","html-slider-response",23,95624,"0.0-17.0","m0p2gjfznd",16,NA,"<div style=""width:500px;"">
                            <p style=""font-size:50px; font-weight:bold;""
                            >happy</p>
                            <div style=""width:240px; margin: auto;"">
                                <img src=""images/map26_BrBG_scaleRev_orientDef_270.png"" style= ""width:200px""alt=""img"">
                            </div>
                        </div>",0.4175,"",0,"",NA,"","images/map26_BrBG_scaleRev_orientDef_270.png","happy",1,26,26,"BrBG","orientDef","scaleRev","270",NA,NA
"","","","","","html-slider-response",24,98741,"0.0-18.0","m0p2gjfznd",16,NA,"<div style=""width:500px;"">
                            <p style=""font-size:50px; font-weight:bold;""
                            >happy</p>
                            <div style=""width:240px; margin: auto;"">
                                <img src=""images/map27_RdYlGn_scaleRev_orientMir_090.png"" style= ""width:200px""alt=""img"">
                            </div>
                        </div>",0.565,"",0,"",NA,"","images/map27_RdYlGn_scaleRev_orientMir_090.png","happy",1,27,27,"RdYlGn","orientMir","scaleRev","090",NA,NA
"","","","","","html-slider-response",25,101175,"0.0-19.0","m0p2gjfznd",16,NA,"<div style=""width:500px;"">
                            <p style=""font-size:50px; font-weight:bold;""
                            >happy</p>
                            <div style=""width:240px; margin: auto;"">
                                <img src=""images/map23_BuGn_scaleDef_orientDef_180.png"" style= ""width:200px""alt=""img"">
                            </div>
                        </div>",0.2475,"",0,"",NA,"","images/map23_BuGn_scaleDef_orientDef_180.png","happy",1,23,23,"BuGn","orientDef","scaleDef","180",NA,NA
"","","","","","html-slider-response",26,103674,"0.0-20.0","m0p2gjfznd",16,NA,"<div style=""width:500px;"">
                            <p style=""font-size:50px; font-weight:bold;""
                            >happy</p>
                            <div style=""width:240px; margin: auto;"">
                                <img src=""images/map15_BuPu_scaleDef_orientDef_000.png"" style= ""width:200px""alt=""img"">
                            </div>
                        </div>",0.275,"",0,"",NA,"","images/map15_BuPu_scaleDef_orientDef_000.png","happy",1,15,15,"BuPu","orientDef","scaleDef","000",NA,NA
"","","","","","html-slider-response",27,106226,"0.0-21.0","m0p2gjfznd",16,NA,"<div style=""width:500px;"">
                            <p style=""font-size:50px; font-weight:bold;""
                            >happy</p>
                            <div style=""width:240px; margin: auto;"">
                                <img src=""images/map05_turbo_scaleRev_orientMir_270.png"" style= ""width:200px""alt=""img"">
                            </div>
                        </div>",0.935,"",0,"",NA,"","images/map05_turbo_scaleRev_orientMir_270.png","happy",1,5,5,"turbo","orientMir","scaleRev","270",NA,NA
"","","","","","html-slider-response",28,108441,"0.0-22.0","m0p2gjfznd",16,NA,"<div style=""width:500px;"">
                            <p style=""font-size:50px; font-weight:bold;""
                            >happy</p>
                            <div style=""width:240px; margin: auto;"">
                                <img src=""images/map07_plasma_scaleDef_orientDef_180.png"" style= ""width:200px""alt=""img"">
                            </div>
                        </div>",0.615,"",0,"",NA,"","images/map07_plasma_scaleDef_orientDef_180.png","happy",1,7,7,"plasma","orientDef","scaleDef","180",NA,NA
"","","","","","html-slider-response",29,110876,"0.0-23.0","m0p2gjfznd",16,NA,"<div style=""width:500px;"">
                            <p style=""font-size:50px; font-weight:bold;""
                            >happy</p>
                            <div style=""width:240px; margin: auto;"">
                                <img src=""images/map13_RdPu_scaleRev_orientMir_270.png"" style= ""width:200px""alt=""img"">
                            </div>
                        </div>",0.7175,"",0,"",NA,"","images/map13_RdPu_scaleRev_orientMir_270.png","happy",1,13,13,"RdPu","orientMir","scaleRev","270",NA,NA
"","","","","","html-slider-response",30,112709,"0.0-24.0","m0p2gjfznd",16,NA,"<div style=""width:500px;"">
                            <p style=""font-size:50px; font-weight:bold;""
                            >happy</p>
                            <div style=""width:240px; margin: auto;"">
                                <img src=""images/map13_PuRd_scaleRev_orientMir_090.png"" style= ""width:200px""alt=""img"">
                            </div>
                        </div>",0.795,"",0,"",NA,"","images/map13_PuRd_scaleRev_orientMir_090.png","happy",1,13,13,"PuRd","orientMir","scaleRev","090",NA,NA
"","","","","","html-slider-response",31,114591,"0.0-25.0","m0p2gjfznd",16,NA,"<div style=""width:500px;"">
                            <p style=""font-size:50px; font-weight:bold;""
                            >happy</p>
                            <div style=""width:240px; margin: auto;"">
                                <img src=""images/map07_magma_scaleRev_orientMir_270.png"" style= ""width:200px""alt=""img"">
                            </div>
                        </div>",0.7325,"",0,"",NA,"","images/map07_magma_scaleRev_orientMir_270.png","happy",1,7,7,"magma","orientMir","scaleRev","270",NA,NA
"","","","","","html-slider-response",32,116841,"0.0-26.0","m0p2gjfznd",16,NA,"<div style=""width:500px;"">
                            <p style=""font-size:50px; font-weight:bold;""
                            >happy</p>
                            <div style=""width:240px; margin: auto;"">
                                <img src=""images/map10_cividis_scaleDef_orientDef_000.png"" style= ""width:200px""alt=""img"">
                            </div>
                        </div>",0.085,"",0,"",NA,"","images/map10_cividis_scaleDef_orientDef_000.png","happy",1,10,10,"cividis","orientDef","scaleDef","000",NA,NA
"","","","","","html-slider-response",33,119774,"0.0-27.0","m0p2gjfznd",16,NA,"<div style=""width:500px;"">
                            <p style=""font-size:50px; font-weight:bold;""
                            >happy</p>
                            <div style=""width:240px; margin: auto;"">
                                <img src=""images/map05_gist_earth_scaleDef_orientMir_000.png"" style= ""width:200px""alt=""img"">
                            </div>
                        </div>",0.115,"",0,"",NA,"","images/map05_gist_earth_scaleDef_orientMir_000.png","happy",1,5,5,"gist","scaleDef","earth","orientMir",NA,NA
"","","","","","html-slider-response",34,121975,"0.0-28.0","m0p2gjfznd",16,NA,"<div style=""width:500px;"">
                            <p style=""font-size:50px; font-weight:bold;""
                            >happy</p>
                            <div style=""width:240px; margin: auto;"">
                                <img src=""images/map13_YlOrRd_scaleRev_orientDef_090.png"" style= ""width:200px""alt=""img"">
                            </div>
                        </div>",0.8425,"",0,"",NA,"","images/map13_YlOrRd_scaleRev_orientDef_090.png","happy",1,13,13,"YlOrRd","orientDef","scaleRev","090",NA,NA
"","","","","","html-slider-response",35,123991,"0.0-29.0","m0p2gjfznd",16,NA,"<div style=""width:500px;"">
                            <p style=""font-size:50px; font-weight:bold;""
                            >happy</p>
                            <div style=""width:240px; margin: auto;"">
                                <img src=""images/map02_coolwarm_scaleDef_orientDef_000.png"" style= ""width:200px""alt=""img"">
                            </div>
                        </div>",0.6,"",0,"",NA,"","images/map02_coolwarm_scaleDef_orientDef_000.png","happy",1,2,2,"coolwarm","orientDef","scaleDef","000",NA,NA
"","","","","","html-slider-response",36,126124,"0.0-30.0","m0p2gjfznd",16,NA,"<div style=""width:500px;"">
                            <p style=""font-size:50px; font-weight:bold;""
                            >happy</p>
                            <div style=""width:240px; margin: auto;"">
                                <img src=""images/map10_Purples_scaleRev_orientMir_090.png"" style= ""width:200px""alt=""img"">
                            </div>
                        </div>",0.295,"",0,"",NA,"","images/map10_Purples_scaleRev_orientMir_090.png","happy",1,10,10,"Purples","orientMir","scaleRev","090",NA,NA
"","","","","","html-slider-response",37,128558,"0.0-31.0","m0p2gjfznd",16,NA,"<div style=""width:500px;"">
                            <p style=""font-size:50px; font-weight:bold;""
                            >happy</p>
                            <div style=""width:240px; margin: auto;"">
                                <img src=""images/map05_managua_scaleDef_orientDef_000.png"" style= ""width:200px""alt=""img"">
                            </div>
                        </div>",0.4525,"",0,"",NA,"","images/map05_managua_scaleDef_orientDef_000.png","happy",1,5,5,"managua","orientDef","scaleDef","000",NA,NA
"","","","","","html-slider-response",38,130991,"0.0-32.0","m0p2gjfznd",16,NA,"<div style=""width:500px;"">
                            <p style=""font-size:50px; font-weight:bold;""
                            >happy</p>
                            <div style=""width:240px; margin: auto;"">
                                <img src=""images/map02_seismic_scaleDef_orientMir_000.png"" style= ""width:200px""alt=""img"">
                            </div>
                        </div>",0.435,"",0,"",NA,"","images/map02_seismic_scaleDef_orientMir_000.png","happy",1,2,2,"seismic","orientMir","scaleDef","000",NA,NA
"","","","","","html-slider-response",39,133108,"0.0-33.0","m0p2gjfznd",16,NA,"<div style=""width:500px;"">
                            <p style=""font-size:50px; font-weight:bold;""
                            >happy</p>
                            <div style=""width:240px; margin: auto;"">
                                <img src=""images/map02_berlin_scaleDef_orientMir_180.png"" style= ""width:200px""alt=""img"">
                            </div>
                        </div>",0.3725,"",0,"",NA,"","images/map02_berlin_scaleDef_orientMir_180.png","happy",1,2,2,"berlin","orientMir","scaleDef","180",NA,NA
"","","","","","html-slider-response",40,135441,"0.0-34.0","m0p2gjfznd",16,NA,"<div style=""width:500px;"">
                            <p style=""font-size:50px; font-weight:bold;""
                            >happy</p>
                            <div style=""width:240px; margin: auto;"">
                                <img src=""images/map10_Blues_scaleRev_orientMir_270.png"" style= ""width:200px""alt=""img"">
                            </div>
                        </div>",0.335,"",0,"",NA,"","images/map10_Blues_scaleRev_orientMir_270.png","happy",1,10,10,"Blues","orientMir","scaleRev","270",NA,NA
"","","","","","html-slider-response",41,137607,"0.0-35.0","m0p2gjfznd",16,NA,"<div style=""width:500px;"">
                            <p style=""font-size:50px; font-weight:bold;""
                            >happy</p>
                            <div style=""width:240px; margin: auto;"">
                                <img src=""images/map02_bwr_scaleDef_orientDef_180.png"" style= ""width:200px""alt=""img"">
                            </div>
                        </div>",0.4475,"",0,"",NA,"","images/map02_bwr_scaleDef_orientDef_180.png","happy",1,2,2,"bwr","orientDef","scaleDef","180",NA,NA
"","","","","","html-slider-response",42,139658,"0.0-36.0","m0p2gjfznd",16,NA,"<div style=""width:500px;"">
                            <p style=""font-size:50px; font-weight:bold;""
                            >happy</p>
                            <div style=""width:240px; margin: auto;"">
                                <img src=""images/map15_GnBu_scaleDef_orientDef_180.png"" style= ""width:200px""alt=""img"">
                            </div>
                        </div>",0.3425,"",0,"",NA,"","images/map15_GnBu_scaleDef_orientDef_180.png","happy",1,15,15,"GnBu","orientDef","scaleDef","180",NA,NA
"","","","","","html-slider-response",43,141540,"0.0-37.0","m0p2gjfznd",16,NA,"<div style=""width:500px;"">
                            <p style=""font-size:50px; font-weight:bold;""
                            >happy</p>
                            <div style=""width:240px; margin: auto;"">
                                <img src=""images/map27_Spectral_scaleDef_orientMir_180.png"" style= ""width:200px""alt=""img"">
                            </div>
                        </div>",0.325,"",0,"",NA,"","images/map27_Spectral_scaleDef_orientMir_180.png","happy",1,27,27,"Spectral","orientMir","scaleDef","180",NA,NA
"","","","","","html-slider-response",44,143374,"0.0-38.0","m0p2gjfznd",16,NA,"<div style=""width:500px;"">
                            <p style=""font-size:50px; font-weight:bold;""
                            >happy</p>
                            <div style=""width:240px; margin: auto;"">
                                <img src=""images/map15_YlGnBu_scaleDef_orientMir_180.png"" style= ""width:200px""alt=""img"">
                            </div>
                        </div>",0.32,"",0,"",NA,"","images/map15_YlGnBu_scaleDef_orientMir_180.png","happy",1,15,15,"YlGnBu","orientMir","scaleDef","180",NA,NA
"","","","","","html-slider-response",45,145192,"0.0-39.0","m0p2gjfznd",16,NA,"<div style=""width:500px;"">
                            <p style=""font-size:50px; font-weight:bold;""
                            >happy</p>
                            <div style=""width:240px; margin: auto;"">
                                <img src=""images/map26_PRGn_scaleRev_orientDef_090.png"" style= ""width:200px""alt=""img"">
                            </div>
                        </div>",0.355,"",0,"",NA,"","images/map26_PRGn_scaleRev_orientDef_090.png","happy",1,26,26,"PRGn","orientDef","scaleRev","090",NA,NA
"","","","","","html-slider-response",46,147208,"0.0-40.0","m0p2gjfznd",16,NA,"<div style=""width:500px;"">
                            <p style=""font-size:50px; font-weight:bold;""
                            >happy</p>
                            <div style=""width:240px; margin: auto;"">
                                <img src=""images/map15_PuBu_scaleDef_orientMir_000.png"" style= ""width:200px""alt=""img"">
                            </div>
                        </div>",0.325,"",0,"",NA,"","images/map15_PuBu_scaleDef_orientMir_000.png","happy",1,15,15,"PuBu","orientMir","scaleDef","000",NA,NA
"","","","","","html-slider-response",47,149041,"0.0-41.0","m0p2gjfznd",16,NA,"<div style=""width:500px;"">
                            <p style=""font-size:50px; font-weight:bold;""
                            >happy</p>
                            <div style=""width:240px; margin: auto;"">
                                <img src=""images/map12_Oranges_scaleRev_orientDef_270.png"" style= ""width:200px""alt=""img"">
                            </div>
                        </div>",0.6725,"",0,"",NA,"","images/map12_Oranges_scaleRev_orientDef_270.png","happy",1,12,12,"Oranges","orientDef","scaleRev","270",NA,NA
"","","","","","html-slider-response",48,150991,"0.0-42.0","m0p2gjfznd",16,NA,"<div style=""width:500px;"">
                            <p style=""font-size:50px; font-weight:bold;""
                            >happy</p>
                            <div style=""width:240px; margin: auto;"">
                                <img src=""images/map07_viridis_scaleRev_orientDef_090.png"" style= ""width:200px""alt=""img"">
                            </div>
                        </div>",0.435,"",0,"",NA,"","images/map07_viridis_scaleRev_orientDef_090.png","happy",1,7,7,"viridis","orientDef","scaleRev","090",NA,NA
"","","","","","html-slider-response",49,152859,"0.0-43.0","m0p2gjfznd",16,NA,"<div style=""width:500px;"">
                            <p style=""font-size:50px; font-weight:bold;""
                            >happy</p>
                            <div style=""width:240px; margin: auto;"">
                                <img src=""images/map23_PuBuGn_scaleRev_orientDef_090.png"" style= ""width:200px""alt=""img"">
                            </div>
                        </div>",0.32,"",0,"",NA,"","images/map23_PuBuGn_scaleRev_orientDef_090.png","happy",1,23,23,"PuBuGn","orientDef","scaleRev","090",NA,NA
"","","","","","html-slider-response",50,155208,"0.0-44.0","m0p2gjfznd",16,NA,"<div style=""width:500px;"">
                            <p style=""font-size:50px; font-weight:bold;""
                            >happy</p>
                            <div style=""width:240px; margin: auto;"">
                                <img src=""images/map26_BrBG_scaleDef_orientDef_180.png"" style= ""width:200px""alt=""img"">
                            </div>
                        </div>",0.2375,"",0,"",NA,"","images/map26_BrBG_scaleDef_orientDef_180.png","happy",1,26,26,"BrBG","orientDef","scaleDef","180",NA,NA
"","","","","","html-slider-response",51,157474,"0.0-45.0","m0p2gjfznd",16,NA,"<div style=""width:500px;"">
                            <p style=""font-size:50px; font-weight:bold;""
                            >happy</p>
                            <div style=""width:240px; margin: auto;"">
                                <img src=""images/map13_PuRd_scaleDef_orientMir_000.png"" style= ""width:200px""alt=""img"">
                            </div>
                        </div>",0.7575,"",0,"",NA,"","images/map13_PuRd_scaleDef_orientMir_000.png","happy",1,13,13,"PuRd","orientMir","scaleDef","000",NA,NA
"","","","","","html-slider-response",52,161607,"0.0-46.0","m0p2gjfznd",16,NA,"<div style=""width:500px;"">
                            <p style=""font-size:50px; font-weight:bold;""
                            >happy</p>
                            <div style=""width:240px; margin: auto;"">
                                <img src=""images/map26_PRGn_scaleDef_orientDef_000.png"" style= ""width:200px""alt=""img"">
                            </div>
                        </div>",0.335,"",0,"",NA,"","images/map26_PRGn_scaleDef_orientDef_000.png","happy",1,26,26,"PRGn","orientDef","scaleDef","000",NA,NA
"","","","","","html-slider-response",53,163374,"0.0-47.0","m0p2gjfznd",16,NA,"<div style=""width:500px;"">
                            <p style=""font-size:50px; font-weight:bold;""
                            >happy</p>
                            <div style=""width:240px; margin: auto;"">
                                <img src=""images/map12_Reds_scaleRev_orientMir_090.png"" style= ""width:200px""alt=""img"">
                            </div>
                        </div>",0.665,"",0,"",NA,"","images/map12_Reds_scaleRev_orientMir_090.png","happy",1,12,12,"Reds","orientMir","scaleRev","090",NA,NA
"","","","","","html-slider-response",54,164791,"0.0-48.0","m0p2gjfznd",16,NA,"<div style=""width:500px;"">
                            <p style=""font-size:50px; font-weight:bold;""
                            >happy</p>
                            <div style=""width:240px; margin: auto;"">
                                <img src=""images/map12_Oranges_scaleDef_orientDef_180.png"" style= ""width:200px""alt=""img"">
                            </div>
                        </div>",0.635,"",0,"",NA,"","images/map12_Oranges_scaleDef_orientDef_180.png","happy",1,12,12,"Oranges","orientDef","scaleDef","180",NA,NA
"","","","","","html-slider-response",55,166691,"0.0-49.0","m0p2gjfznd",16,NA,"<div style=""width:500px;"">
                            <p style=""font-size:50px; font-weight:bold;""
                            >happy</p>
                            <div style=""width:240px; margin: auto;"">
                                <img src=""images/map12_Reds_scaleDef_orientMir_000.png"" style= ""width:200px""alt=""img"">
                            </div>
                        </div>",0.725,"",0,"",NA,"","images/map12_Reds_scaleDef_orientMir_000.png","happy",1,12,12,"Reds","orientMir","scaleDef","000",NA,NA
"","","","","","html-slider-response",56,168625,"0.0-50.0","m0p2gjfznd",16,NA,"<div style=""width:500px;"">
                            <p style=""font-size:50px; font-weight:bold;""
                            >happy</p>
                            <div style=""width:240px; margin: auto;"">
                                <img src=""images/map13_OrRd_scaleDef_orientDef_180.png"" style= ""width:200px""alt=""img"">
                            </div>
                        </div>",0.615,"",0,"",NA,"","images/map13_OrRd_scaleDef_orientDef_180.png","happy",1,13,13,"OrRd","orientDef","scaleDef","180",NA,NA
"","","","","","html-slider-response",57,170658,"0.0-51.0","m0p2gjfznd",16,NA,"<div style=""width:500px;"">
                            <p style=""font-size:50px; font-weight:bold;""
                            >happy</p>
                            <div style=""width:240px; margin: auto;"">
                                <img src=""images/map10_Greys_scaleRev_orientDef_270.png"" style= ""width:200px""alt=""img"">
                            </div>
                        </div>",0,"",0,"",NA,"","images/map10_Greys_scaleRev_orientDef_270.png","happy",1,10,10,"Greys","orientDef","scaleRev","270",NA,NA
"","","","","","html-slider-response",58,172658,"0.0-52.0","m0p2gjfznd",16,NA,"<div style=""width:500px;"">
                            <p style=""font-size:50px; font-weight:bold;""
                            >happy</p>
                            <div style=""width:240px; margin: auto;"">
                                <img src=""images/map15_YlGnBu_scaleRev_orientMir_270.png"" style= ""width:200px""alt=""img"">
                            </div>
                        </div>",0.26,"",0,"",NA,"","images/map15_YlGnBu_scaleRev_orientMir_270.png","happy",1,15,15,"YlGnBu","orientMir","scaleRev","270",NA,NA
"","","","","","html-slider-response",59,174674,"0.0-53.0","m0p2gjfznd",16,NA,"<div style=""width:500px;"">
                            <p style=""font-size:50px; font-weight:bold;""
                            >happy</p>
                            <div style=""width:240px; margin: auto;"">
                                <img src=""images/map05_gist_earth_scaleRev_orientMir_090.png"" style= ""width:200px""alt=""img"">
                            </div>
                        </div>",0.425,"",0,"",NA,"","images/map05_gist_earth_scaleRev_orientMir_090.png","happy",1,5,5,"gist","scaleRev","earth","orientMir",NA,NA
"","","","","","html-button-response",60,178896,"0.0-54.0","m0p2gjfznd",16,3719,"<p>You are doing great!<br></br> You are halway done with the current block. When you are ready to continue, click the 'Continue' button.</p>",0.5,"",NA,"",NA,"","","",NA,NA,NA,"","","","",NA,NA
"","","","","","html-slider-response",61,180474,"0.0-55.0","m0p2gjfznd",16,NA,"<div style=""width:500px;"">
                            <p style=""font-size:50px; font-weight:bold;""
                            >happy</p>
                            <div style=""width:240px; margin: auto;"">
                                <img src=""images/map27_RdYlBu_scaleDef_orientDef_180.png"" style= ""width:200px""alt=""img"">
                            </div>
                        </div>",0.4875,"",0,"",NA,"","images/map27_RdYlBu_scaleDef_orientDef_180.png","happy",1,27,27,"RdYlBu","orientDef","scaleDef","180",NA,NA
"","","","","","html-slider-response",62,182191,"0.0-56.0","m0p2gjfznd",16,NA,"<div style=""width:500px;"">
                            <p style=""font-size:50px; font-weight:bold;""
                            >happy</p>
                            <div style=""width:240px; margin: auto;"">
                                <img src=""images/map10_cividis_scaleRev_orientDef_090.png"" style= ""width:200px""alt=""img"">
                            </div>
                        </div>",0.41,"",0,"",NA,"","images/map10_cividis_scaleRev_orientDef_090.png","happy",1,10,10,"cividis","orientDef","scaleRev","090",NA,NA
"","","","","","html-slider-response",63,183691,"0.0-57.0","m0p2gjfznd",16,NA,"<div style=""width:500px;"">
                            <p style=""font-size:50px; font-weight:bold;""
                            >happy</p>
                            <div style=""width:240px; margin: auto;"">
                                <img src=""images/map10_Purples_scaleDef_orientMir_000.png"" style= ""width:200px""alt=""img"">
                            </div>
                        </div>",0.38,"",0,"",NA,"","images/map10_Purples_scaleDef_orientMir_000.png","happy",1,10,10,"Purples","orientMir","scaleDef","000",NA,NA
"","","","","","html-slider-response",64,185357,"0.0-58.0","m0p2gjfznd",16,NA,"<div style=""width:500px;"">
                            <p style=""font-size:50px; font-weight:bold;""
                            >happy</p>
                            <div style=""width:240px; margin: auto;"">
                                <img src=""images/map15_BuPu_scaleRev_orientDef_090.png"" style= ""width:200px""alt=""img"">
                            </div>
                        </div>",0.39,"",0,"",NA,"","images/map15_BuPu_scaleRev_orientDef_090.png","happy",1,15,15,"BuPu","orientDef","scaleRev","090",NA,NA
"","","","","","html-slider-response",65,187041,"0.0-59.0","m0p2gjfznd",16,NA,"<div style=""width:500px;"">
                            <p style=""font-size:50px; font-weight:bold;""
                            >happy</p>
                            <div style=""width:240px; margin: auto;"">
                                <img src=""images/map23_YlGn_scaleRev_orientMir_090.png"" style= ""width:200px""alt=""img"">
                            </div>
                        </div>",0.255,"",0,"",NA,"","images/map23_YlGn_scaleRev_orientMir_090.png","happy",1,23,23,"YlGn","orientMir","scaleRev","090",NA,NA
"","","","","","html-slider-response",66,188592,"0.0-60.0","m0p2gjfznd",16,NA,"<div style=""width:500px;"">
                            <p style=""font-size:50px; font-weight:bold;""
                            >happy</p>
                            <div style=""width:240px; margin: auto;"">
                                <img src=""images/map13_RdPu_scaleDef_orientMir_180.png"" style= ""width:200px""alt=""img"">
                            </div>
                        </div>",0.6675,"",0,"",NA,"","images/map13_RdPu_scaleDef_orientMir_180.png","happy",1,13,13,"RdPu","orientMir","scaleDef","180",NA,NA
"","","","","","html-slider-response",67,190641,"0.0-61.0","m0p2gjfznd",16,NA,"<div style=""width:500px;"">
                            <p style=""font-size:50px; font-weight:bold;""
                            >happy</p>
                            <div style=""width:240px; margin: auto;"">
                                <img src=""images/map10_Greys_scaleDef_orientDef_180.png"" style= ""width:200px""alt=""img"">
                            </div>
                        </div>",0,"",0,"",NA,"","images/map10_Greys_scaleDef_orientDef_180.png","happy",1,10,10,"Greys","orientDef","scaleDef","180",NA,NA
"","","","","","html-slider-response",68,192291,"0.0-62.0","m0p2gjfznd",16,NA,"<div style=""width:500px;"">
                            <p style=""font-size:50px; font-weight:bold;""
                            >happy</p>
                            <div style=""width:240px; margin: auto;"">
                                <img src=""images/map26_PuOr_scaleDef_orientMir_000.png"" style= ""width:200px""alt=""img"">
                            </div>
                        </div>",0.325,"",0,"",NA,"","images/map26_PuOr_scaleDef_orientMir_000.png","happy",1,26,26,"PuOr","orientMir","scaleDef","000",NA,NA
"","","","","","html-slider-response",69,194008,"0.0-63.0","m0p2gjfznd",16,NA,"<div style=""width:500px;"">
                            <p style=""font-size:50px; font-weight:bold;""
                            >happy</p>
                            <div style=""width:240px; margin: auto;"">
                                <img src=""images/map23_PiYG_scaleRev_orientMir_270.png"" style= ""width:200px""alt=""img"">
                            </div>
                        </div>",0.5475,"",0,"",NA,"","images/map23_PiYG_scaleRev_orientMir_270.png","happy",1,23,23,"PiYG","orientMir","scaleRev","270",NA,NA
"","","","","","html-slider-response",70,195907,"0.0-64.0","m0p2gjfznd",16,NA,"<div style=""width:500px;"">
                            <p style=""font-size:50px; font-weight:bold;""
                            >happy</p>
                            <div style=""width:240px; margin: auto;"">
                                <img src=""images/map26_PuOr_scaleRev_orientMir_090.png"" style= ""width:200px""alt=""img"">
                            </div>
                        </div>",0.3675,"",0,"",NA,"","images/map26_PuOr_scaleRev_orientMir_090.png","happy",1,26,26,"PuOr","orientMir","scaleRev","090",NA,NA
"","","","","","html-slider-response",71,198207,"0.0-65.0","m0p2gjfznd",16,NA,"<div style=""width:500px;"">
                            <p style=""font-size:50px; font-weight:bold;""
                            >happy</p>
                            <div style=""width:240px; margin: auto;"">
                                <img src=""images/map05_vanimo_scaleRev_orientDef_270.png"" style= ""width:200px""alt=""img"">
                            </div>
                        </div>",0.58,"",0,"",NA,"","images/map05_vanimo_scaleRev_orientDef_270.png","happy",1,5,5,"vanimo","orientDef","scaleRev","270",NA,NA
"","","","","","html-slider-response",72,202375,"0.0-66.0","m0p2gjfznd",16,NA,"<div style=""width:500px;"">
                            <p style=""font-size:50px; font-weight:bold;""
                            >happy</p>
                            <div style=""width:240px; margin: auto;"">
                                <img src=""images/map26_RdGy_scaleDef_orientMir_180.png"" style= ""width:200px""alt=""img"">
                            </div>
                        </div>",0.375,"",0,"",NA,"","images/map26_RdGy_scaleDef_orientMir_180.png","happy",1,26,26,"RdGy","orientMir","scaleDef","180",NA,NA
"","","","","","html-slider-response",73,206257,"0.0-67.0","m0p2gjfznd",16,NA,"<div style=""width:500px;"">
                            <p style=""font-size:50px; font-weight:bold;""
                            >happy</p>
                            <div style=""width:240px; margin: auto;"">
                                <img src=""images/map27_RdYlGn_scaleDef_orientMir_000.png"" style= ""width:200px""alt=""img"">
                            </div>
                        </div>",0.3475,"",0,"",NA,"","images/map27_RdYlGn_scaleDef_orientMir_000.png","happy",1,27,27,"RdYlGn","orientMir","scaleDef","000",NA,NA
"","","","","","html-slider-response",74,208174,"0.0-68.0","m0p2gjfznd",16,NA,"<div style=""width:500px;"">
                            <p style=""font-size:50px; font-weight:bold;""
                            >happy</p>
                            <div style=""width:240px; margin: auto;"">
                                <img src=""images/map12_Greens_scaleRev_orientDef_090.png"" style= ""width:200px""alt=""img"">
                            </div>
                        </div>",0.265,"",0,"",NA,"","images/map12_Greens_scaleRev_orientDef_090.png","happy",1,12,12,"Greens","orientDef","scaleRev","090",NA,NA
"","","","","","html-slider-response",75,210540,"0.0-69.0","m0p2gjfznd",16,NA,"<div style=""width:500px;"">
                            <p style=""font-size:50px; font-weight:bold;""
                            >happy</p>
                            <div style=""width:240px; margin: auto;"">
                                <img src=""images/map23_BuGn_scaleRev_orientDef_270.png"" style= ""width:200px""alt=""img"">
                            </div>
                        </div>",0.575,"",0,"",NA,"","images/map23_BuGn_scaleRev_orientDef_270.png","happy",1,23,23,"BuGn","orientDef","scaleRev","270",NA,NA
"","","","","","html-slider-response",76,212474,"0.0-70.0","m0p2gjfznd",16,NA,"<div style=""width:500px;"">
                            <p style=""font-size:50px; font-weight:bold;""
                            >happy</p>
                            <div style=""width:240px; margin: auto;"">
                                <img src=""images/map23_PuBuGn_scaleDef_orientDef_000.png"" style= ""width:200px""alt=""img"">
                            </div>
                        </div>",0.4625,"",0,"",NA,"","images/map23_PuBuGn_scaleDef_orientDef_000.png","happy",1,23,23,"PuBuGn","orientDef","scaleDef","000",NA,NA
"","","","","","html-slider-response",77,214374,"0.0-71.0","m0p2gjfznd",16,NA,"<div style=""width:500px;"">
                            <p style=""font-size:50px; font-weight:bold;""
                            >happy</p>
                            <div style=""width:240px; margin: auto;"">
                                <img src=""images/map02_berlin_scaleRev_orientMir_270.png"" style= ""width:200px""alt=""img"">
                            </div>
                        </div>",0.4025,"",0,"",NA,"","images/map02_berlin_scaleRev_orientMir_270.png","happy",1,2,2,"berlin","orientMir","scaleRev","270",NA,NA
"","","","","","html-slider-response",78,216024,"0.0-72.0","m0p2gjfznd",16,NA,"<div style=""width:500px;"">
                            <p style=""font-size:50px; font-weight:bold;""
                            >happy</p>
                            <div style=""width:240px; margin: auto;"">
                                <img src=""images/map07_inferno_scaleDef_orientMir_000.png"" style= ""width:200px""alt=""img"">
                            </div>
                        </div>",0.68,"",0,"",NA,"","images/map07_inferno_scaleDef_orientMir_000.png","happy",1,7,7,"inferno","orientMir","scaleDef","000",NA,NA
"","","","","","html-slider-response",79,219157,"0.0-73.0","m0p2gjfznd",16,NA,"<div style=""width:500px;"">
                            <p style=""font-size:50px; font-weight:bold;""
                            >happy</p>
                            <div style=""width:240px; margin: auto;"">
                                <img src=""images/map05_vanimo_scaleDef_orientDef_180.png"" style= ""width:200px""alt=""img"">
                            </div>
                        </div>",0.385,"",0,"",NA,"","images/map05_vanimo_scaleDef_orientDef_180.png","happy",1,5,5,"vanimo","orientDef","scaleDef","180",NA,NA
"","","","","","html-slider-response",80,221074,"0.0-74.0","m0p2gjfznd",16,NA,"<div style=""width:500px;"">
                            <p style=""font-size:50px; font-weight:bold;""
                            >happy</p>
                            <div style=""width:240px; margin: auto;"">
                                <img src=""images/map07_plasma_scaleRev_orientDef_270.png"" style= ""width:200px""alt=""img"">
                            </div>
                        </div>",0.55,"",0,"",NA,"","images/map07_plasma_scaleRev_orientDef_270.png","happy",1,7,7,"plasma","orientDef","scaleRev","270",NA,NA
"","","","","","html-slider-response",81,222657,"0.0-75.0","m0p2gjfznd",16,NA,"<div style=""width:500px;"">
                            <p style=""font-size:50px; font-weight:bold;""
                            >happy</p>
                            <div style=""width:240px; margin: auto;"">
                                <img src=""images/map27_RdBu_scaleDef_orientDef_000.png"" style= ""width:200px""alt=""img"">
                            </div>
                        </div>",0.375,"",0,"",NA,"","images/map27_RdBu_scaleDef_orientDef_000.png","happy",1,27,27,"RdBu","orientDef","scaleDef","000",NA,NA
"","","","","","html-slider-response",82,224490,"0.0-76.0","m0p2gjfznd",16,NA,"<div style=""width:500px;"">
                            <p style=""font-size:50px; font-weight:bold;""
                            >happy</p>
                            <div style=""width:240px; margin: auto;"">
                                <img src=""images/map23_PiYG_scaleDef_orientMir_180.png"" style= ""width:200px""alt=""img"">
                            </div>
                        </div>",0.57,"",0,"",NA,"","images/map23_PiYG_scaleDef_orientMir_180.png","happy",1,23,23,"PiYG","orientMir","scaleDef","180",NA,NA
"","","","","","html-slider-response",83,226659,"0.0-77.0","m0p2gjfznd",16,NA,"<div style=""width:500px;"">
                            <p style=""font-size:50px; font-weight:bold;""
                            >happy</p>
                            <div style=""width:240px; margin: auto;"">
                                <img src=""images/map05_turbo_scaleDef_orientMir_180.png"" style= ""width:200px""alt=""img"">
                            </div>
                        </div>",0.9275,"",0,"",NA,"","images/map05_turbo_scaleDef_orientMir_180.png","happy",1,5,5,"turbo","orientMir","scaleDef","180",NA,NA
"","","","","","html-slider-response",84,228874,"0.0-78.0","m0p2gjfznd",16,NA,"<div style=""width:500px;"">
                            <p style=""font-size:50px; font-weight:bold;""
                            >happy</p>
                            <div style=""width:240px; margin: auto;"">
                                <img src=""images/map10_Blues_scaleDef_orientMir_180.png"" style= ""width:200px""alt=""img"">
                            </div>
                        </div>",0.05,"",0,"",NA,"","images/map10_Blues_scaleDef_orientMir_180.png","happy",1,10,10,"Blues","orientMir","scaleDef","180",NA,NA
"","","","","","html-slider-response",85,231226,"0.0-79.0","m0p2gjfznd",16,NA,"<div style=""width:500px;"">
                            <p style=""font-size:50px; font-weight:bold;""
                            >happy</p>
                            <div style=""width:240px; margin: auto;"">
                                <img src=""images/map05_managua_scaleRev_orientDef_090.png"" style= ""width:200px""alt=""img"">
                            </div>
                        </div>",0.58,"",0,"",NA,"","images/map05_managua_scaleRev_orientDef_090.png","happy",1,5,5,"managua","orientDef","scaleRev","090",NA,NA
"","","","","","html-slider-response",86,233074,"0.0-80.0","m0p2gjfznd",16,NA,"<div style=""width:500px;"">
                            <p style=""font-size:50px; font-weight:bold;""
                            >happy</p>
                            <div style=""width:240px; margin: auto;"">
                                <img src=""images/map02_bwr_scaleRev_orientDef_270.png"" style= ""width:200px""alt=""img"">
                            </div>
                        </div>",0.6225,"",0,"",NA,"","images/map02_bwr_scaleRev_orientDef_270.png","happy",1,2,2,"bwr","orientDef","scaleRev","270",NA,NA
"","","","","","html-slider-response",87,235007,"0.0-81.0","m0p2gjfznd",16,NA,"<div style=""width:500px;"">
                            <p style=""font-size:50px; font-weight:bold;""
                            >happy</p>
                            <div style=""width:240px; margin: auto;"">
                                <img src=""images/map27_RdYlBu_scaleRev_orientDef_270.png"" style= ""width:200px""alt=""img"">
                            </div>
                        </div>",0.7475,"",0,"",NA,"","images/map27_RdYlBu_scaleRev_orientDef_270.png","happy",1,27,27,"RdYlBu","orientDef","scaleRev","270",NA,NA
"","","","","","html-slider-response",88,236974,"0.0-82.0","m0p2gjfznd",16,NA,"<div style=""width:500px;"">
                            <p style=""font-size:50px; font-weight:bold;""
                            >happy</p>
                            <div style=""width:240px; margin: auto;"">
                                <img src=""images/map13_OrRd_scaleRev_orientDef_270.png"" style= ""width:200px""alt=""img"">
                            </div>
                        </div>",0.8,"",0,"",NA,"","images/map13_OrRd_scaleRev_orientDef_270.png","happy",1,13,13,"OrRd","orientDef","scaleRev","270",NA,NA
"","","","","","html-slider-response",89,238657,"0.0-83.0","m0p2gjfznd",16,NA,"<div style=""width:500px;"">
                            <p style=""font-size:50px; font-weight:bold;""
                            >happy</p>
                            <div style=""width:240px; margin: auto;"">
                                <img src=""images/map07_magma_scaleDef_orientMir_180.png"" style= ""width:200px""alt=""img"">
                            </div>
                        </div>",0.765,"",0,"",NA,"","images/map07_magma_scaleDef_orientMir_180.png","happy",1,7,7,"magma","orientMir","scaleDef","180",NA,NA
"","","","","","html-slider-response",90,240741,"0.0-84.0","m0p2gjfznd",16,NA,"<div style=""width:500px;"">
                            <p style=""font-size:50px; font-weight:bold;""
                            >happy</p>
                            <div style=""width:240px; margin: auto;"">
                                <img src=""images/map12_YlOrBr_scaleDef_orientMir_180.png"" style= ""width:200px""alt=""img"">
                            </div>
                        </div>",0.63,"",0,"",NA,"","images/map12_YlOrBr_scaleDef_orientMir_180.png","happy",1,12,12,"YlOrBr","orientMir","scaleDef","180",NA,NA
"","","","","","html-slider-response",91,242374,"0.0-85.0","m0p2gjfznd",16,NA,"<div style=""width:500px;"">
                            <p style=""font-size:50px; font-weight:bold;""
                            >happy</p>
                            <div style=""width:240px; margin: auto;"">
                                <img src=""images/map12_YlOrBr_scaleRev_orientMir_270.png"" style= ""width:200px""alt=""img"">
                            </div>
                        </div>",0.655,"",0,"",NA,"","images/map12_YlOrBr_scaleRev_orientMir_270.png","happy",1,12,12,"YlOrBr","orientMir","scaleRev","270",NA,NA
"","","","","","html-slider-response",92,244191,"0.0-86.0","m0p2gjfznd",16,NA,"<div style=""width:500px;"">
                            <p style=""font-size:50px; font-weight:bold;""
                            >happy</p>
                            <div style=""width:240px; margin: auto;"">
                                <img src=""images/map12_Greens_scaleDef_orientDef_000.png"" style= ""width:200px""alt=""img"">
                            </div>
                        </div>",0.4375,"",0,"",NA,"","images/map12_Greens_scaleDef_orientDef_000.png","happy",1,12,12,"Greens","orientDef","scaleDef","000",NA,NA
"","","","","","html-slider-response",93,246124,"0.0-87.0","m0p2gjfznd",16,NA,"<div style=""width:500px;"">
                            <p style=""font-size:50px; font-weight:bold;""
                            >happy</p>
                            <div style=""width:240px; margin: auto;"">
                                <img src=""images/map23_YlGn_scaleDef_orientMir_000.png"" style= ""width:200px""alt=""img"">
                            </div>
                        </div>",0.3825,"",0,"",NA,"","images/map23_YlGn_scaleDef_orientMir_000.png","happy",1,23,23,"YlGn","orientMir","scaleDef","000",NA,NA
"","","","","","html-slider-response",94,248375,"0.0-88.0","m0p2gjfznd",16,NA,"<div style=""width:500px;"">
                            <p style=""font-size:50px; font-weight:bold;""
                            >happy</p>
                            <div style=""width:240px; margin: auto;"">
                                <img src=""images/map02_coolwarm_scaleRev_orientDef_090.png"" style= ""width:200px""alt=""img"">
                            </div>
                        </div>",0.43,"",0,"",NA,"","images/map02_coolwarm_scaleRev_orientDef_090.png","happy",1,2,2,"coolwarm","orientDef","scaleRev","090",NA,NA
"","","","","","html-slider-response",95,250024,"0.0-89.0","m0p2gjfznd",16,NA,"<div style=""width:500px;"">
                            <p style=""font-size:50px; font-weight:bold;""
                            >happy</p>
                            <div style=""width:240px; margin: auto;"">
                                <img src=""images/map13_YlOrRd_scaleDef_orientDef_000.png"" style= ""width:200px""alt=""img"">
                            </div>
                        </div>",0.575,"",0,"",NA,"","images/map13_YlOrRd_scaleDef_orientDef_000.png","happy",1,13,13,"YlOrRd","orientDef","scaleDef","000",NA,NA
"","","","","","html-slider-response",96,251607,"0.0-90.0","m0p2gjfznd",16,NA,"<div style=""width:500px;"">
                            <p style=""font-size:50px; font-weight:bold;""
                            >happy</p>
                            <div style=""width:240px; margin: auto;"">
                                <img src=""images/map02_seismic_scaleRev_orientMir_090.png"" style= ""width:200px""alt=""img"">
                            </div>
                        </div>",0.605,"",0,"",NA,"","images/map02_seismic_scaleRev_orientMir_090.png","happy",1,2,2,"seismic","orientMir","scaleRev","090",NA,NA
"","","","","","html-slider-response",97,253290,"0.0-91.0","m0p2gjfznd",16,NA,"<div style=""width:500px;"">
                            <p style=""font-size:50px; font-weight:bold;""
                            >happy</p>
                            <div style=""width:240px; margin: auto;"">
                                <img src=""images/map27_RdBu_scaleRev_orientDef_090.png"" style= ""width:200px""alt=""img"">
                            </div>
                        </div>",0.39,"",0,"",NA,"","images/map27_RdBu_scaleRev_orientDef_090.png","happy",1,27,27,"RdBu","orientDef","scaleRev","090",NA,NA
"","","","","","html-slider-response",98,256140,"0.0-92.0","m0p2gjfznd",16,NA,"<div style=""width:500px;"">
                            <p style=""font-size:50px; font-weight:bold;""
                            >happy</p>
                            <div style=""width:240px; margin: auto;"">
                                <img src=""images/map07_viridis_scaleDef_orientDef_000.png"" style= ""width:200px""alt=""img"">
                            </div>
                        </div>",0.385,"",0,"",NA,"","images/map07_viridis_scaleDef_orientDef_000.png","happy",1,7,7,"viridis","orientDef","scaleDef","000",NA,NA
"","","","","","html-slider-response",99,257940,"0.0-93.0","m0p2gjfznd",16,NA,"<div style=""width:500px;"">
                            <p style=""font-size:50px; font-weight:bold;""
                            >happy</p>
                            <div style=""width:240px; margin: auto;"">
                                <img src=""images/map26_RdGy_scaleRev_orientMir_270.png"" style= ""width:200px""alt=""img"">
                            </div>
                        </div>",0.395,"",0,"",NA,"","images/map26_RdGy_scaleRev_orientMir_270.png","happy",1,26,26,"RdGy","orientMir","scaleRev","270",NA,NA
"","","","","","html-slider-response",100,259374,"0.0-94.0","m0p2gjfznd",16,NA,"<div style=""width:500px;"">
                            <p style=""font-size:50px; font-weight:bold;""
                            >happy</p>
                            <div style=""width:240px; margin: auto;"">
                                <img src=""images/map15_PuBu_scaleRev_orientMir_090.png"" style= ""width:200px""alt=""img"">
                            </div>
                        </div>",0.3275,"",0,"",NA,"","images/map15_PuBu_scaleRev_orientMir_090.png","happy",1,15,15,"PuBu","orientMir","scaleRev","090",NA,NA
"","","","","","html-button-response",101,266763,"0.0-95.0","m0p2gjfznd",16,6887,"<p>Great Job! You've finished block 1.<br></br> You have 4 block(s) left to go.<br></br></p>",0.5,"",NA,"",NA,"","","",NA,NA,NA,"","","","",NA,NA
"","","","","","html-button-response",102,268763,"0.0-96.0","m0p2gjfznd",16,1999,"<p>In this block of trials, you will be asked to rate how much you associate each map with:</p > <p style = 'font-size:150%; font-weight: bold'>angry</p><br></br>",0.5,"",NA,"",NA,"","","",NA,NA,NA,"","","","",NA,NA
"","","","","","html-slider-response",103,270923,"0.0-97.0","m0p2gjfznd",16,NA,"<div style=""width:500px;"">
                            <p style=""font-size:50px; font-weight:bold;""
                            >angry</p>
                            <div style=""width:240px; margin: auto;"">
                                <img src=""images/map05_turbo_scaleDef_orientMir_180.png"" style= ""width:200px""alt=""img"">
                            </div>
                        </div>",0.4275,"",0,"",NA,"","images/map05_turbo_scaleDef_orientMir_180.png","angry",1,5,5,"turbo","orientMir","scaleDef","180",NA,NA
"","","","","","html-slider-response",104,273074,"0.0-98.0","m0p2gjfznd",16,NA,"<div style=""width:500px;"">
                            <p style=""font-size:50px; font-weight:bold;""
                            >angry</p>
                            <div style=""width:240px; margin: auto;"">
                                <img src=""images/map15_YlGnBu_scaleRev_orientMir_270.png"" style= ""width:200px""alt=""img"">
                            </div>
                        </div>",0.3475,"",0,"",NA,"","images/map15_YlGnBu_scaleRev_orientMir_270.png","angry",1,15,15,"YlGnBu","orientMir","scaleRev","270",NA,NA
"","","","","","html-slider-response",105,275440,"0.0-99.0","m0p2gjfznd",16,NA,"<div style=""width:500px;"">
                            <p style=""font-size:50px; font-weight:bold;""
                            >angry</p>
                            <div style=""width:240px; margin: auto;"">
                                <img src=""images/map10_cividis_scaleRev_orientDef_090.png"" style= ""width:200px""alt=""img"">
                            </div>
                        </div>",0.37,"",0,"",NA,"","images/map10_cividis_scaleRev_orientDef_090.png","angry",1,10,10,"cividis","orientDef","scaleRev","090",NA,NA
"","","","","","html-slider-response",106,277473,"0.0-100.0","m0p2gjfznd",16,NA,"<div style=""width:500px;"">
                            <p style=""font-size:50px; font-weight:bold;""
                            >angry</p>
                            <div style=""width:240px; margin: auto;"">
                                <img src=""images/map12_Greens_scaleRev_orientDef_090.png"" style= ""width:200px""alt=""img"">
                            </div>
                        </div>",0.335,"",0,"",NA,"","images/map12_Greens_scaleRev_orientDef_090.png","angry",1,12,12,"Greens","orientDef","scaleRev","090",NA,NA
"","","","","","html-slider-response",107,279459,"0.0-101.0","m0p2gjfznd",16,NA,"<div style=""width:500px;"">
                            <p style=""font-size:50px; font-weight:bold;""
                            >angry</p>
                            <div style=""width:240px; margin: auto;"">
                                <img src=""images/map12_Reds_scaleDef_orientMir_000.png"" style= ""width:200px""alt=""img"">
                            </div>
                        </div>",1,"",0,"",NA,"","images/map12_Reds_scaleDef_orientMir_000.png","angry",1,12,12,"Reds","orientMir","scaleDef","000",NA,NA
"","","","","","html-slider-response",108,281140,"0.0-102.0","m0p2gjfznd",16,NA,"<div style=""width:500px;"">
                            <p style=""font-size:50px; font-weight:bold;""
                            >angry</p>
                            <div style=""width:240px; margin: auto;"">
                                <img src=""images/map23_BuGn_scaleRev_orientDef_270.png"" style= ""width:200px""alt=""img"">
                            </div>
                        </div>",0.315,"",0,"",NA,"","images/map23_BuGn_scaleRev_orientDef_270.png","angry",1,23,23,"BuGn","orientDef","scaleRev","270",NA,NA
"","","","","","html-slider-response",109,282373,"0.0-103.0","m0p2gjfznd",16,NA,"<div style=""width:500px;"">
                            <p style=""font-size:50px; font-weight:bold;""
                            >angry</p>
                            <div style=""width:240px; margin: auto;"">
                                <img src=""images/map12_Reds_scaleRev_orientMir_090.png"" style= ""width:200px""alt=""img"">
                            </div>
                        </div>",1,"",0,"",NA,"","images/map12_Reds_scaleRev_orientMir_090.png","angry",1,12,12,"Reds","orientMir","scaleRev","090",NA,NA
"","","","","","html-slider-response",110,284173,"0.0-104.0","m0p2gjfznd",16,NA,"<div style=""width:500px;"">
                            <p style=""font-size:50px; font-weight:bold;""
                            >angry</p>
                            <div style=""width:240px; margin: auto;"">
                                <img src=""images/map05_gist_earth_scaleRev_orientMir_090.png"" style= ""width:200px""alt=""img"">
                            </div>
                        </div>",0.2325,"",0,"",NA,"","images/map05_gist_earth_scaleRev_orientMir_090.png","angry",1,5,5,"gist","scaleRev","earth","orientMir",NA,NA
"","","","","","html-slider-response",111,285407,"0.0-105.0","m0p2gjfznd",16,NA,"<div style=""width:500px;"">
                            <p style=""font-size:50px; font-weight:bold;""
                            >angry</p>
                            <div style=""width:240px; margin: auto;"">
                                <img src=""images/map26_RdGy_scaleDef_orientMir_180.png"" style= ""width:200px""alt=""img"">
                            </div>
                        </div>",0.7225,"",0,"",NA,"","images/map26_RdGy_scaleDef_orientMir_180.png","angry",1,26,26,"RdGy","orientMir","scaleDef","180",NA,NA
"","","","","","html-slider-response",112,287007,"0.0-106.0","m0p2gjfznd",16,NA,"<div style=""width:500px;"">
                            <p style=""font-size:50px; font-weight:bold;""
                            >angry</p>
                            <div style=""width:240px; margin: auto;"">
                                <img src=""images/map26_PRGn_scaleRev_orientDef_090.png"" style= ""width:200px""alt=""img"">
                            </div>
                        </div>",0.355,"",0,"",NA,"","images/map26_PRGn_scaleRev_orientDef_090.png","angry",1,26,26,"PRGn","orientDef","scaleRev","090",NA,NA
"","","","","","html-slider-response",113,288507,"0.0-107.0","m0p2gjfznd",16,NA,"<div style=""width:500px;"">
                            <p style=""font-size:50px; font-weight:bold;""
                            >angry</p>
                            <div style=""width:240px; margin: auto;"">
                                <img src=""images/map27_RdYlBu_scaleRev_orientDef_270.png"" style= ""width:200px""alt=""img"">
                            </div>
                        </div>",0.355,"",0,"",NA,"","images/map27_RdYlBu_scaleRev_orientDef_270.png","angry",1,27,27,"RdYlBu","orientDef","scaleRev","270",NA,NA
"","","","","","html-slider-response",114,289974,"0.0-108.0","m0p2gjfznd",16,NA,"<div style=""width:500px;"">
                            <p style=""font-size:50px; font-weight:bold;""
                            >angry</p>
                            <div style=""width:240px; margin: auto;"">
                                <img src=""images/map15_YlGnBu_scaleDef_orientMir_180.png"" style= ""width:200px""alt=""img"">
                            </div>
                        </div>",0.355,"",0,"",NA,"","images/map15_YlGnBu_scaleDef_orientMir_180.png","angry",1,15,15,"YlGnBu","orientMir","scaleDef","180",NA,NA
"","","","","","html-slider-response",115,291943,"0.0-109.0","m0p2gjfznd",16,NA,"<div style=""width:500px;"">
                            <p style=""font-size:50px; font-weight:bold;""
                            >angry</p>
                            <div style=""width:240px; margin: auto;"">
                                <img src=""images/map26_PuOr_scaleRev_orientMir_090.png"" style= ""width:200px""alt=""img"">
                            </div>
                        </div>",0.83,"",0,"",NA,"","images/map26_PuOr_scaleRev_orientMir_090.png","angry",1,26,26,"PuOr","orientMir","scaleRev","090",NA,NA
"","","","","","html-slider-response",116,293473,"0.0-110.0","m0p2gjfznd",16,NA,"<div style=""width:500px;"">
                            <p style=""font-size:50px; font-weight:bold;""
                            >angry</p>
                            <div style=""width:240px; margin: auto;"">
                                <img src=""images/map13_RdPu_scaleRev_orientMir_270.png"" style= ""width:200px""alt=""img"">
                            </div>
                        </div>",0.6375,"",0,"",NA,"","images/map13_RdPu_scaleRev_orientMir_270.png","angry",1,13,13,"RdPu","orientMir","scaleRev","270",NA,NA
"","","","","","html-slider-response",117,296007,"0.0-111.0","m0p2gjfznd",16,NA,"<div style=""width:500px;"">
                            <p style=""font-size:50px; font-weight:bold;""
                            >angry</p>
                            <div style=""width:240px; margin: auto;"">
                                <img src=""images/map15_PuBu_scaleDef_orientMir_000.png"" style= ""width:200px""alt=""img"">
                            </div>
                        </div>",0.6,"",0,"",NA,"","images/map15_PuBu_scaleDef_orientMir_000.png","angry",1,15,15,"PuBu","orientMir","scaleDef","000",NA,NA
"","","","","","html-slider-response",118,297259,"0.0-112.0","m0p2gjfznd",16,NA,"<div style=""width:500px;"">
                            <p style=""font-size:50px; font-weight:bold;""
                            >angry</p>
                            <div style=""width:240px; margin: auto;"">
                                <img src=""images/map23_BuGn_scaleDef_orientDef_180.png"" style= ""width:200px""alt=""img"">
                            </div>
                        </div>",0.6475,"",0,"",NA,"","images/map23_BuGn_scaleDef_orientDef_180.png","angry",1,23,23,"BuGn","orientDef","scaleDef","180",NA,NA
"","","","","","html-slider-response",119,298890,"0.0-113.0","m0p2gjfznd",16,NA,"<div style=""width:500px;"">
                            <p style=""font-size:50px; font-weight:bold;""
                            >angry</p>
                            <div style=""width:240px; margin: auto;"">
                                <img src=""images/map10_Purples_scaleDef_orientMir_000.png"" style= ""width:200px""alt=""img"">
                            </div>
                        </div>",0.6225,"",0,"",NA,"","images/map10_Purples_scaleDef_orientMir_000.png","angry",1,10,10,"Purples","orientMir","scaleDef","000",NA,NA
"","","","","","html-slider-response",120,300307,"0.0-114.0","m0p2gjfznd",16,NA,"<div style=""width:500px;"">
                            <p style=""font-size:50px; font-weight:bold;""
                            >angry</p>
                            <div style=""width:240px; margin: auto;"">
                                <img src=""images/map07_magma_scaleRev_orientMir_270.png"" style= ""width:200px""alt=""img"">
                            </div>
                        </div>",0.635,"",0,"",NA,"","images/map07_magma_scaleRev_orientMir_270.png","angry",1,7,7,"magma","orientMir","scaleRev","270",NA,NA
"","","","","","html-slider-response",121,302790,"0.0-115.0","m0p2gjfznd",16,NA,"<div style=""width:500px;"">
                            <p style=""font-size:50px; font-weight:bold;""
                            >angry</p>
                            <div style=""width:240px; margin: auto;"">
                                <img src=""images/map10_Greys_scaleRev_orientDef_270.png"" style= ""width:200px""alt=""img"">
                            </div>
                        </div>",0.855,"",0,"",NA,"","images/map10_Greys_scaleRev_orientDef_270.png","angry",1,10,10,"Greys","orientDef","scaleRev","270",NA,NA
"","","","","","html-slider-response",122,304340,"0.0-116.0","m0p2gjfznd",16,NA,"<div style=""width:500px;"">
                            <p style=""font-size:50px; font-weight:bold;""
                            >angry</p>
                            <div style=""width:240px; margin: auto;"">
                                <img src=""images/map05_managua_scaleRev_orientDef_090.png"" style= ""width:200px""alt=""img"">
                            </div>
                        </div>",0.5925,"",0,"",NA,"","images/map05_managua_scaleRev_orientDef_090.png","angry",1,5,5,"managua","orientDef","scaleRev","090",NA,NA
"","","","","","html-slider-response",123,305841,"0.0-117.0","m0p2gjfznd",16,NA,"<div style=""width:500px;"">
                            <p style=""font-size:50px; font-weight:bold;""
                            >angry</p>
                            <div style=""width:240px; margin: auto;"">
                                <img src=""images/map02_berlin_scaleDef_orientMir_180.png"" style= ""width:200px""alt=""img"">
                            </div>
                        </div>",0.665,"",0,"",NA,"","images/map02_berlin_scaleDef_orientMir_180.png","angry",1,2,2,"berlin","orientMir","scaleDef","180",NA,NA
"","","","","","html-slider-response",124,307574,"0.0-118.0","m0p2gjfznd",16,NA,"<div style=""width:500px;"">
                            <p style=""font-size:50px; font-weight:bold;""
                            >angry</p>
                            <div style=""width:240px; margin: auto;"">
                                <img src=""images/map23_PuBuGn_scaleRev_orientDef_090.png"" style= ""width:200px""alt=""img"">
                            </div>
                        </div>",0.3075,"",0,"",NA,"","images/map23_PuBuGn_scaleRev_orientDef_090.png","angry",1,23,23,"PuBuGn","orientDef","scaleRev","090",NA,NA
"","","","","","html-slider-response",125,309057,"0.0-119.0","m0p2gjfznd",16,NA,"<div style=""width:500px;"">
                            <p style=""font-size:50px; font-weight:bold;""
                            >angry</p>
                            <div style=""width:240px; margin: auto;"">
                                <img src=""images/map02_berlin_scaleRev_orientMir_270.png"" style= ""width:200px""alt=""img"">
                            </div>
                        </div>",0.7625,"",0,"",NA,"","images/map02_berlin_scaleRev_orientMir_270.png","angry",1,2,2,"berlin","orientMir","scaleRev","270",NA,NA
"","","","","","html-slider-response",126,310673,"0.0-120.0","m0p2gjfznd",16,NA,"<div style=""width:500px;"">
                            <p style=""font-size:50px; font-weight:bold;""
                            >angry</p>
                            <div style=""width:240px; margin: auto;"">
                                <img src=""images/map07_magma_scaleDef_orientMir_180.png"" style= ""width:200px""alt=""img"">
                            </div>
                        </div>",0.7225,"",0,"",NA,"","images/map07_magma_scaleDef_orientMir_180.png","angry",1,7,7,"magma","orientMir","scaleDef","180",NA,NA
"","","","","","html-slider-response",127,312690,"0.0-121.0","m0p2gjfznd",16,NA,"<div style=""width:500px;"">
                            <p style=""font-size:50px; font-weight:bold;""
                            >angry</p>
                            <div style=""width:240px; margin: auto;"">
                                <img src=""images/map12_Oranges_scaleDef_orientDef_180.png"" style= ""width:200px""alt=""img"">
                            </div>
                        </div>",0.6825,"",0,"",NA,"","images/map12_Oranges_scaleDef_orientDef_180.png","angry",1,12,12,"Oranges","orientDef","scaleDef","180",NA,NA
"","","","","","html-slider-response",128,314574,"0.0-122.0","m0p2gjfznd",16,NA,"<div style=""width:500px;"">
                            <p style=""font-size:50px; font-weight:bold;""
                            >angry</p>
                            <div style=""width:240px; margin: auto;"">
                                <img src=""images/map15_PuBu_scaleRev_orientMir_090.png"" style= ""width:200px""alt=""img"">
                            </div>
                        </div>",0.355,"",0,"",NA,"","images/map15_PuBu_scaleRev_orientMir_090.png","angry",1,15,15,"PuBu","orientMir","scaleRev","090",NA,NA
"","","","","","html-slider-response",129,316157,"0.0-123.0","m0p2gjfznd",16,NA,"<div style=""width:500px;"">
                            <p style=""font-size:50px; font-weight:bold;""
                            >angry</p>
                            <div style=""width:240px; margin: auto;"">
                                <img src=""images/map07_inferno_scaleDef_orientMir_000.png"" style= ""width:200px""alt=""img"">
                            </div>
                        </div>",0.675,"",0,"",NA,"","images/map07_inferno_scaleDef_orientMir_000.png","angry",1,7,7,"inferno","orientMir","scaleDef","000",NA,NA
"","","","","","html-slider-response",130,318206,"0.0-124.0","m0p2gjfznd",16,NA,"<div style=""width:500px;"">
                            <p style=""font-size:50px; font-weight:bold;""
                            >angry</p>
                            <div style=""width:240px; margin: auto;"">
                                <img src=""images/map13_PuRd_scaleDef_orientMir_000.png"" style= ""width:200px""alt=""img"">
                            </div>
                        </div>",0.7375,"",0,"",NA,"","images/map13_PuRd_scaleDef_orientMir_000.png","angry",1,13,13,"PuRd","orientMir","scaleDef","000",NA,NA
"","","","","","html-slider-response",131,319890,"0.0-125.0","m0p2gjfznd",16,NA,"<div style=""width:500px;"">
                            <p style=""font-size:50px; font-weight:bold;""
                            >angry</p>
                            <div style=""width:240px; margin: auto;"">
                                <img src=""images/map13_RdPu_scaleDef_orientMir_180.png"" style= ""width:200px""alt=""img"">
                            </div>
                        </div>",0.6325,"",0,"",NA,"","images/map13_RdPu_scaleDef_orientMir_180.png","angry",1,13,13,"RdPu","orientMir","scaleDef","180",NA,NA
"","","","","","html-slider-response",132,321473,"0.0-126.0","m0p2gjfznd",16,NA,"<div style=""width:500px;"">
                            <p style=""font-size:50px; font-weight:bold;""
                            >angry</p>
                            <div style=""width:240px; margin: auto;"">
                                <img src=""images/map05_turbo_scaleRev_orientMir_270.png"" style= ""width:200px""alt=""img"">
                            </div>
                        </div>",0.215,"",0,"",NA,"","images/map05_turbo_scaleRev_orientMir_270.png","angry",1,5,5,"turbo","orientMir","scaleRev","270",NA,NA
"","","","","","html-slider-response",133,323940,"0.0-127.0","m0p2gjfznd",16,NA,"<div style=""width:500px;"">
                            <p style=""font-size:50px; font-weight:bold;""
                            >angry</p>
                            <div style=""width:240px; margin: auto;"">
                                <img src=""images/map02_seismic_scaleRev_orientMir_090.png"" style= ""width:200px""alt=""img"">
                            </div>
                        </div>",0.535,"",0,"",NA,"","images/map02_seismic_scaleRev_orientMir_090.png","angry",1,2,2,"seismic","orientMir","scaleRev","090",NA,NA
"","","","","","html-slider-response",134,326057,"0.0-128.0","m0p2gjfznd",16,NA,"<div style=""width:500px;"">
                            <p style=""font-size:50px; font-weight:bold;""
                            >angry</p>
                            <div style=""width:240px; margin: auto;"">
                                <img src=""images/map27_RdBu_scaleDef_orientDef_000.png"" style= ""width:200px""alt=""img"">
                            </div>
                        </div>",0.3225,"",0,"",NA,"","images/map27_RdBu_scaleDef_orientDef_000.png","angry",1,27,27,"RdBu","orientDef","scaleDef","000",NA,NA
"","","","","","html-slider-response",135,328056,"0.0-129.0","m0p2gjfznd",16,NA,"<div style=""width:500px;"">
                            <p style=""font-size:50px; font-weight:bold;""
                            >angry</p>
                            <div style=""width:240px; margin: auto;"">
                                <img src=""images/map27_Spectral_scaleDef_orientMir_180.png"" style= ""width:200px""alt=""img"">
                            </div>
                        </div>",0,"",0,"",NA,"","images/map27_Spectral_scaleDef_orientMir_180.png","angry",1,27,27,"Spectral","orientMir","scaleDef","180",NA,NA
"","","","","","html-slider-response",136,330173,"0.0-130.0","m0p2gjfznd",16,NA,"<div style=""width:500px;"">
                            <p style=""font-size:50px; font-weight:bold;""
                            >angry</p>
                            <div style=""width:240px; margin: auto;"">
                                <img src=""images/map12_Greens_scaleDef_orientDef_000.png"" style= ""width:200px""alt=""img"">
                            </div>
                        </div>",0.325,"",0,"",NA,"","images/map12_Greens_scaleDef_orientDef_000.png","angry",1,12,12,"Greens","orientDef","scaleDef","000",NA,NA
"","","","","","html-slider-response",137,332007,"0.0-131.0","m0p2gjfznd",16,NA,"<div style=""width:500px;"">
                            <p style=""font-size:50px; font-weight:bold;""
                            >angry</p>
                            <div style=""width:240px; margin: auto;"">
                                <img src=""images/map02_bwr_scaleRev_orientDef_270.png"" style= ""width:200px""alt=""img"">
                            </div>
                        </div>",0.245,"",0,"",NA,"","images/map02_bwr_scaleRev_orientDef_270.png","angry",1,2,2,"bwr","orientDef","scaleRev","270",NA,NA
"","","","","","html-slider-response",138,333807,"0.0-132.0","m0p2gjfznd",16,NA,"<div style=""width:500px;"">
                            <p style=""font-size:50px; font-weight:bold;""
                            >angry</p>
                            <div style=""width:240px; margin: auto;"">
                                <img src=""images/map27_RdYlGn_scaleDef_orientMir_000.png"" style= ""width:200px""alt=""img"">
                            </div>
                        </div>",0.735,"",0,"",NA,"","images/map27_RdYlGn_scaleDef_orientMir_000.png","angry",1,27,27,"RdYlGn","orientMir","scaleDef","000",NA,NA
"","","","","","html-slider-response",139,335407,"0.0-133.0","m0p2gjfznd",16,NA,"<div style=""width:500px;"">
                            <p style=""font-size:50px; font-weight:bold;""
                            >angry</p>
                            <div style=""width:240px; margin: auto;"">
                                <img src=""images/map10_Blues_scaleRev_orientMir_270.png"" style= ""width:200px""alt=""img"">
                            </div>
                        </div>",0.345,"",0,"",NA,"","images/map10_Blues_scaleRev_orientMir_270.png","angry",1,10,10,"Blues","orientMir","scaleRev","270",NA,NA
"","","","","","html-slider-response",140,336940,"0.0-134.0","m0p2gjfznd",16,NA,"<div style=""width:500px;"">
                            <p style=""font-size:50px; font-weight:bold;""
                            >angry</p>
                            <div style=""width:240px; margin: auto;"">
                                <img src=""images/map23_PuBuGn_scaleDef_orientDef_000.png"" style= ""width:200px""alt=""img"">
                            </div>
                        </div>",0.255,"",0,"",NA,"","images/map23_PuBuGn_scaleDef_orientDef_000.png","angry",1,23,23,"PuBuGn","orientDef","scaleDef","000",NA,NA
"","","","","","html-slider-response",141,338574,"0.0-135.0","m0p2gjfznd",16,NA,"<div style=""width:500px;"">
                            <p style=""font-size:50px; font-weight:bold;""
                            >angry</p>
                            <div style=""width:240px; margin: auto;"">
                                <img src=""images/map05_vanimo_scaleRev_orientDef_270.png"" style= ""width:200px""alt=""img"">
                            </div>
                        </div>",0.285,"",0,"",NA,"","images/map05_vanimo_scaleRev_orientDef_270.png","angry",1,5,5,"vanimo","orientDef","scaleRev","270",NA,NA
"","","","","","html-slider-response",142,340390,"0.0-136.0","m0p2gjfznd",16,NA,"<div style=""width:500px;"">
                            <p style=""font-size:50px; font-weight:bold;""
                            >angry</p>
                            <div style=""width:240px; margin: auto;"">
                                <img src=""images/map13_OrRd_scaleDef_orientDef_180.png"" style= ""width:200px""alt=""img"">
                            </div>
                        </div>",0.86,"",0,"",NA,"","images/map13_OrRd_scaleDef_orientDef_180.png","angry",1,13,13,"OrRd","orientDef","scaleDef","180",NA,NA
"","","","","","html-button-response",143,342529,"0.0-137.0","m0p2gjfznd",16,1637,"<p>You are doing great!<br></br> You are halway done with the current block. When you are ready to continue, click the 'Continue' button.</p>",0.5,"",NA,"",NA,"","","",NA,NA,NA,"","","","",NA,NA
"","","","","","html-slider-response",144,344057,"0.0-138.0","m0p2gjfznd",16,NA,"<div style=""width:500px;"">
                            <p style=""font-size:50px; font-weight:bold;""
                            >angry</p>
                            <div style=""width:240px; margin: auto;"">
                                <img src=""images/map26_RdGy_scaleRev_orientMir_270.png"" style= ""width:200px""alt=""img"">
                            </div>
                        </div>",1,"",0,"",NA,"","images/map26_RdGy_scaleRev_orientMir_270.png","angry",1,26,26,"RdGy","orientMir","scaleRev","270",NA,NA
"","","","","","html-slider-response",145,345890,"0.0-139.0","m0p2gjfznd",16,NA,"<div style=""width:500px;"">
                            <p style=""font-size:50px; font-weight:bold;""
                            >angry</p>
                            <div style=""width:240px; margin: auto;"">
                                <img src=""images/map10_Purples_scaleRev_orientMir_090.png"" style= ""width:200px""alt=""img"">
                            </div>
                        </div>",0.455,"",0,"",NA,"","images/map10_Purples_scaleRev_orientMir_090.png","angry",1,10,10,"Purples","orientMir","scaleRev","090",NA,NA
"","","","","","html-slider-response",146,348123,"0.0-140.0","m0p2gjfznd",16,NA,"<div style=""width:500px;"">
                            <p style=""font-size:50px; font-weight:bold;""
                            >angry</p>
                            <div style=""width:240px; margin: auto;"">
                                <img src=""images/map23_PiYG_scaleRev_orientMir_270.png"" style= ""width:200px""alt=""img"">
                            </div>
                        </div>",0.365,"",0,"",NA,"","images/map23_PiYG_scaleRev_orientMir_270.png","angry",1,23,23,"PiYG","orientMir","scaleRev","270",NA,NA
"","","","","","html-slider-response",147,349807,"0.0-141.0","m0p2gjfznd",16,NA,"<div style=""width:500px;"">
                            <p style=""font-size:50px; font-weight:bold;""
                            >angry</p>
                            <div style=""width:240px; margin: auto;"">
                                <img src=""images/map07_plasma_scaleRev_orientDef_270.png"" style= ""width:200px""alt=""img"">
                            </div>
                        </div>",0.2525,"",0,"",NA,"","images/map07_plasma_scaleRev_orientDef_270.png","angry",1,7,7,"plasma","orientDef","scaleRev","270",NA,NA
"","","","","","html-slider-response",148,351757,"0.0-142.0","m0p2gjfznd",16,NA,"<div style=""width:500px;"">
                            <p style=""font-size:50px; font-weight:bold;""
                            >angry</p>
                            <div style=""width:240px; margin: auto;"">
                                <img src=""images/map13_YlOrRd_scaleDef_orientDef_000.png"" style= ""width:200px""alt=""img"">
                            </div>
                        </div>",0.785,"",0,"",NA,"","images/map13_YlOrRd_scaleDef_orientDef_000.png","angry",1,13,13,"YlOrRd","orientDef","scaleDef","000",NA,NA
"","","","","","html-slider-response",149,353473,"0.0-143.0","m0p2gjfznd",16,NA,"<div style=""width:500px;"">
                            <p style=""font-size:50px; font-weight:bold;""
                            >angry</p>
                            <div style=""width:240px; margin: auto;"">
                                <img src=""images/map15_GnBu_scaleDef_orientDef_180.png"" style= ""width:200px""alt=""img"">
                            </div>
                        </div>",0.3575,"",0,"",NA,"","images/map15_GnBu_scaleDef_orientDef_180.png","angry",1,15,15,"GnBu","orientDef","scaleDef","180",NA,NA
"","","","","","html-slider-response",150,355540,"0.0-144.0","m0p2gjfznd",16,NA,"<div style=""width:500px;"">
                            <p style=""font-size:50px; font-weight:bold;""
                            >angry</p>
                            <div style=""width:240px; margin: auto;"">
                                <img src=""images/map12_YlOrBr_scaleDef_orientMir_180.png"" style= ""width:200px""alt=""img"">
                            </div>
                        </div>",0.725,"",0,"",NA,"","images/map12_YlOrBr_scaleDef_orientMir_180.png","angry",1,12,12,"YlOrBr","orientMir","scaleDef","180",NA,NA
"","","","","","html-slider-response",151,357440,"0.0-145.0","m0p2gjfznd",16,NA,"<div style=""width:500px;"">
                            <p style=""font-size:50px; font-weight:bold;""
                            >angry</p>
                            <div style=""width:240px; margin: auto;"">
                                <img src=""images/map13_PuRd_scaleRev_orientMir_090.png"" style= ""width:200px""alt=""img"">
                            </div>
                        </div>",0.89,"",0,"",NA,"","images/map13_PuRd_scaleRev_orientMir_090.png","angry",1,13,13,"PuRd","orientMir","scaleRev","090",NA,NA
"","","","","","html-slider-response",152,359324,"0.0-146.0","m0p2gjfznd",16,NA,"<div style=""width:500px;"">
                            <p style=""font-size:50px; font-weight:bold;""
                            >angry</p>
                            <div style=""width:240px; margin: auto;"">
                                <img src=""images/map27_Spectral_scaleRev_orientMir_270.png"" style= ""width:200px""alt=""img"">
                            </div>
                        </div>",0.125,"",0,"",NA,"","images/map27_Spectral_scaleRev_orientMir_270.png","angry",1,27,27,"Spectral","orientMir","scaleRev","270",NA,NA
"","","","","","html-slider-response",153,361573,"0.0-147.0","m0p2gjfznd",16,NA,"<div style=""width:500px;"">
                            <p style=""font-size:50px; font-weight:bold;""
                            >angry</p>
                            <div style=""width:240px; margin: auto;"">
                                <img src=""images/map13_YlOrRd_scaleRev_orientDef_090.png"" style= ""width:200px""alt=""img"">
                            </div>
                        </div>",0.9125,"",0,"",NA,"","images/map13_YlOrRd_scaleRev_orientDef_090.png","angry",1,13,13,"YlOrRd","orientDef","scaleRev","090",NA,NA
"","","","","","html-slider-response",154,363890,"0.0-148.0","m0p2gjfznd",16,NA,"<div style=""width:500px;"">
                            <p style=""font-size:50px; font-weight:bold;""
                            >angry</p>
                            <div style=""width:240px; margin: auto;"">
                                <img src=""images/map10_cividis_scaleDef_orientDef_000.png"" style= ""width:200px""alt=""img"">
                            </div>
                        </div>",0.175,"",0,"",NA,"","images/map10_cividis_scaleDef_orientDef_000.png","angry",1,10,10,"cividis","orientDef","scaleDef","000",NA,NA
"","","","","","html-slider-response",155,365291,"0.0-149.0","m0p2gjfznd",16,NA,"<div style=""width:500px;"">
                            <p style=""font-size:50px; font-weight:bold;""
                            >angry</p>
                            <div style=""width:240px; margin: auto;"">
                                <img src=""images/map02_seismic_scaleDef_orientMir_000.png"" style= ""width:200px""alt=""img"">
                            </div>
                        </div>",0.805,"",0,"",NA,"","images/map02_seismic_scaleDef_orientMir_000.png","angry",1,2,2,"seismic","orientMir","scaleDef","000",NA,NA
"","","","","","html-slider-response",156,367390,"0.0-150.0","m0p2gjfznd",16,NA,"<div style=""width:500px;"">
                            <p style=""font-size:50px; font-weight:bold;""
                            >angry</p>
                            <div style=""width:240px; margin: auto;"">
                                <img src=""images/map05_gist_earth_scaleDef_orientMir_000.png"" style= ""width:200px""alt=""img"">
                            </div>
                        </div>",0.31,"",0,"",NA,"","images/map05_gist_earth_scaleDef_orientMir_000.png","angry",1,5,5,"gist","scaleDef","earth","orientMir",NA,NA
"","","","","","html-slider-response",157,369107,"0.0-151.0","m0p2gjfznd",16,NA,"<div style=""width:500px;"">
                            <p style=""font-size:50px; font-weight:bold;""
                            >angry</p>
                            <div style=""width:240px; margin: auto;"">
                                <img src=""images/map27_RdYlGn_scaleRev_orientMir_090.png"" style= ""width:200px""alt=""img"">
                            </div>
                        </div>",0.3575,"",0,"",NA,"","images/map27_RdYlGn_scaleRev_orientMir_090.png","angry",1,27,27,"RdYlGn","orientMir","scaleRev","090",NA,NA
"","","","","","html-slider-response",158,370790,"0.0-152.0","m0p2gjfznd",16,NA,"<div style=""width:500px;"">
                            <p style=""font-size:50px; font-weight:bold;""
                            >angry</p>
                            <div style=""width:240px; margin: auto;"">
                                <img src=""images/map23_YlGn_scaleRev_orientMir_090.png"" style= ""width:200px""alt=""img"">
                            </div>
                        </div>",0.305,"",0,"",NA,"","images/map23_YlGn_scaleRev_orientMir_090.png","angry",1,23,23,"YlGn","orientMir","scaleRev","090",NA,NA
"","","","","","html-slider-response",159,372240,"0.0-153.0","m0p2gjfznd",16,NA,"<div style=""width:500px;"">
                            <p style=""font-size:50px; font-weight:bold;""
                            >angry</p>
                            <div style=""width:240px; margin: auto;"">
                                <img src=""images/map02_coolwarm_scaleRev_orientDef_090.png"" style= ""width:200px""alt=""img"">
                            </div>
                        </div>",0.585,"",0,"",NA,"","images/map02_coolwarm_scaleRev_orientDef_090.png","angry",1,2,2,"coolwarm","orientDef","scaleRev","090",NA,NA
"","","","","","html-slider-response",160,374023,"0.0-154.0","m0p2gjfznd",16,NA,"<div style=""width:500px;"">
                            <p style=""font-size:50px; font-weight:bold;""
                            >angry</p>
                            <div style=""width:240px; margin: auto;"">
                                <img src=""images/map13_OrRd_scaleRev_orientDef_270.png"" style= ""width:200px""alt=""img"">
                            </div>
                        </div>",1,"",0,"",NA,"","images/map13_OrRd_scaleRev_orientDef_270.png","angry",1,13,13,"OrRd","orientDef","scaleRev","270",NA,NA
"","","","","","html-slider-response",161,376072,"0.0-155.0","m0p2gjfznd",16,NA,"<div style=""width:500px;"">
                            <p style=""font-size:50px; font-weight:bold;""
                            >angry</p>
                            <div style=""width:240px; margin: auto;"">
                                <img src=""images/map07_viridis_scaleRev_orientDef_090.png"" style= ""width:200px""alt=""img"">
                            </div>
                        </div>",0.1825,"",0,"",NA,"","images/map07_viridis_scaleRev_orientDef_090.png","angry",1,7,7,"viridis","orientDef","scaleRev","090",NA,NA
"","","","","","html-slider-response",162,377573,"0.0-156.0","m0p2gjfznd",16,NA,"<div style=""width:500px;"">
                            <p style=""font-size:50px; font-weight:bold;""
                            >angry</p>
                            <div style=""width:240px; margin: auto;"">
                                <img src=""images/map07_viridis_scaleDef_orientDef_000.png"" style= ""width:200px""alt=""img"">
                            </div>
                        </div>",0.36,"",0,"",NA,"","images/map07_viridis_scaleDef_orientDef_000.png","angry",1,7,7,"viridis","orientDef","scaleDef","000",NA,NA
"","","","","","html-slider-response",163,380290,"0.0-157.0","m0p2gjfznd",16,NA,"<div style=""width:500px;"">
                            <p style=""font-size:50px; font-weight:bold;""
                            >angry</p>
                            <div style=""width:240px; margin: auto;"">
                                <img src=""images/map26_PRGn_scaleDef_orientDef_000.png"" style= ""width:200px""alt=""img"">
                            </div>
