"success","timeout","failed_images","failed_audio","failed_video","trial_type","trial_index","time_elapsed","internal_node_id","subject_id","condition_num","rt","stimulus","response","question_order","slider_start","practiceTrial","practiceTrialNum","correct","image_path","concept","repetition","map_id","map_num","scale_name","orientation_code","mapping_code","rotation_code","ishihara_plate","correct_response"
"true","false","[]","[]","[]","preload",0,329,"0.0-0.0","bxkkbe1j35",31,NA,"",NA,"",NA,"",NA,"","","",NA,NA,NA,"","","","",NA,NA
"","","","","","html-button-response",1,3294438,"0.0-1.0","bxkkbe1j35",31,2625327,"Welcome to our experiment!<p>At the bottom of this screen, you will see a button that says ""Begin Experiment"".<br>Please only click that button when you are ready to complete the 30 minute experiment in one sitting.</p><p> Once you click that button, it will not be possible to restart the experiment.",0.5,"",NA,"",NA,"","","",NA,NA,NA,"","","","",NA,NA
"true","","","","","fullscreen",2,3296893,"0.0-2.0","bxkkbe1j35",31,1446,"",NA,"",NA,"",NA,"","","",NA,NA,NA,"","","","",NA,NA
"","","","","","survey-multi-select",3,3308046,"0.0-3.0","bxkkbe1j35",31,11136,"",NA,"[0]",NA,"",NA,"","","",NA,NA,NA,"","","","",NA,NA
"","","","","","html-button-response",4,3309557,"0.0-4.0","bxkkbe1j35",31,1505,"Welcome! <p> This experiment involves two parts: demographic information, followed by the experimental task.<p> It will take about 30 minutes to complete both parts.",0.5,"",NA,"",NA,"","","",NA,NA,NA,"","","","",NA,NA
"","","","","","survey-text",5,3318040,"0.0-5.0","bxkkbe1j35",31,8461,"",NA,"",NA,"",NA,"","","",NA,NA,NA,"","","","",NA,NA
"","","","","","html-slider-response",6,3334625,"0.0-6.0","bxkkbe1j35",31,16568,"<div style='text-align:left; font-size:20px; line-height:25px; width: 1000px;'>
                                During this experiment you will be asked to rate how much you associate maps with                    different concepts.<br> Below, you can see some examples of the maps you will be asked to rate. Above the maps
                    is the list of concepts.<br>You will be asked                    to rate how much you associate each map with each concept on a scale from 'not at all' to 'very much' like the
                    one below. <br><br>
                    Now, please look at the list of concepts and maps. For each concept, think about the map you associate 'very
                    much' with the concept.<br>                     When you see that map during the experiment, please rate it near the 'very much' endpoint of the
                    scale.<br>Now, please think about which map you associate 'not at all'                     with each concept. When you see that map during the experiment, please rate it near the 'not at all' endpoint
                    of the scale.<br>
                    Please use the full range of the scale. That is, if a map is somewhat associated with the concept, you would
                    click partway between the middle point and right side of the scale.                    You will be asked to rate each map for a given concept before moving on to the next concept.<br>Press the
                    'Continue' button for instructions on how to use the slider.                    <br>
                </div>

                <div style=""width: 500px; margin: 0 auto;"">
                    <!-- Centered text paragraphs -->
                    <div style=""text-align: center; width: 500px;"">
                        <p style=""font-size:25px; line-height:15px;"">
                            angry&nbsp;&nbsp;&nbsp;&nbsp;
                            fearful&nbsp;&nbsp;&nbsp;&nbsp;
                            happy&nbsp;&nbsp;&nbsp;&nbsp;
                            disgust&nbsp;&nbsp;&nbsp;&nbsp;
                            sad
                        </p>
                        <!-- <p style=""font-size:20px; line-height:15px;"">fearful</p>
                        <p style=""font-size:20px;line-height:15px;"">happy</p>
                        <p style=""font-size:20px;line-height:15px;"">disgust</p>
                        <p style=""font-size:20px;line-height:15px;"">sad</p> -->
                    </div>
            

                    <!-- Grid section -->
                   <div style=""display: flex; justify-content: center; padding-top: 15px;"">
                    <div style=""display: grid; grid-template-columns: repeat(10, 55px); grid-gap: 5px; width: auto;"">
                        <img src=""images/map27_YlGn_scaleDef_orientDef_270.png"" alt=""map"" style=""width: 100%;""><img src=""images/map05_RdYlGn_scaleDef_orientDef_270.png"" alt=""map"" style=""width: 100%;""><img src=""images/map02_BrBG_scaleRev_orientDef_180.png"" alt=""map"" style=""width: 100%;""><img src=""images/map23_OrRd_scaleDef_orientDef_090.png"" alt=""map"" style=""width: 100%;""><img src=""images/map15_Greens_scaleRev_orientDef_000.png"" alt=""map"" style=""width: 100%;""><img src=""images/map12_magma_scaleRev_orientMir_180.png"" alt=""map"" style=""width: 100%;""><img src=""images/map02_PRGn_scaleRev_orientDef_000.png"" alt=""map"" style=""width: 100%;""><img src=""images/map23_BuPu_scaleDef_orientMir_270.png"" alt=""map"" style=""width: 100%;""><img src=""images/map07_coolwarm_scaleRev_orientDef_000.png"" alt=""map"" style=""width: 100%;""><img src=""images/map02_RdGy_scaleRev_orientMir_180.png"" alt=""map"" style=""width: 100%;""><img src=""images/map10_vanimo_scaleRev_orientDef_180.png"" alt=""map"" style=""width: 100%;""><img src=""images/map26_YlGnBu_scaleRev_orientMir_180.png"" alt=""map"" style=""width: 100%;""><img src=""images/map13_Purples_scaleDef_orientDef_270.png"" alt=""map"" style=""width: 100%;""><img src=""images/map27_BuGn_scaleDef_orientDef_090.png"" alt=""map"" style=""width: 100%;""><img src=""images/map26_GnBu_scaleDef_orientDef_090.png"" alt=""map"" style=""width: 100%;""><img src=""images/map13_cividis_scaleRev_orientDef_000.png"" alt=""map"" style=""width: 100%;""><img src=""images/map15_Oranges_scaleRev_orientDef_180.png"" alt=""map"" style=""width: 100%;""><img src=""images/map02_PuOr_scaleDef_orientDef_270.png"" alt=""map"" style=""width: 100%;""><img src=""images/map05_RdYlBu_scaleDef_orientDef_090.png"" alt=""map"" style=""width: 100%;""><img src=""images/map12_viridis_scaleRev_orientDef_000.png"" alt=""map"" style=""width: 100%;""><img src=""images/map05_Spectral_scaleRev_orientMir_180.png"" alt=""map"" style=""width: 100%;""><img src=""images/map13_Greys_scaleRev_orientDef_180.png"" alt=""map"" style=""width: 100%;""><img src=""images/map07_berlin_scaleRev_orientMir_180.png"" alt=""map"" style=""width: 100%;""><img src=""images/map10_turbo_scaleRev_orientMir_180.png"" alt=""map"" style=""width: 100%;""><img src=""images/map15_YlOrBr_scaleDef_orientMir_090.png"" alt=""map"" style=""width: 100%;""><img src=""images/map27_PiYG_scaleDef_orientMir_090.png"" alt=""map"" style=""width: 100%;""><img src=""images/map23_YlOrRd_scaleRev_orientDef_000.png"" alt=""map"" style=""width: 100%;""><img src=""images/map07_managua_scaleDef_orientMir_270.png"" alt=""map"" style=""width: 100%;""><img src=""images/map26_PuBu_scaleDef_orientDef_270.png"" alt=""map"" style=""width: 100%;""><img src=""images/map23_RdPu_scaleRev_orientMir_180.png"" alt=""map"" style=""width: 100%;""><img src=""images/map23_PuRd_scaleDef_orientDef_270.png"" alt=""map"" style=""width: 100%;""><img src=""images/map27_PuBuGn_scaleRev_orientDef_000.png"" alt=""map"" style=""width: 100%;""><img src=""images/map13_Blues_scaleRev_orientMir_180.png"" alt=""map"" style=""width: 100%;""><img src=""images/map07_seismic_scaleRev_orientMir_000.png"" alt=""map"" style=""width: 100%;""><img src=""images/map10_gist_earth_scaleRev_orientMir_000.png"" alt=""map"" style=""width: 100%;""><img src=""images/map07_bwr_scaleRev_orientDef_180.png"" alt=""map"" style=""width: 100%;""><img src=""images/map15_Reds_scaleDef_orientDef_270.png"" alt=""map"" style=""width: 100%;""><img src=""images/map12_inferno_scaleRev_orientMir_000.png"" alt=""map"" style=""width: 100%;""><img src=""images/map05_RdBu_scaleRev_orientDef_000.png"" alt=""map"" style=""width: 100%;""><img src=""images/map12_plasma_scaleDef_orientDef_090.png"" alt=""map"" style=""width: 100%;"">
                    </div>
                </div>

                    <!-- Clear floats -->
                    <div style=""clear: both;""></div>
                </div>
                            ",NA,"",0,"true",NA,"","","",NA,NA,NA,"","","","",NA,NA
"","","","","","html-button-response",7,3336339,"0.0-7.0","bxkkbe1j35",31,1713,"<div style=""width:800px;""><p style=""text-align:left"">To move the slider, click and drag your cursor to the location of the scale where you would like to make your rating and then let go. When you let go of the slider, your response will be recorded and the next trial will begin. <br>
                    We are interested in your initial impressions of each map for the given concept, so please go with your first intuition. <br>
                    Before you begin the experiment, there will be four training trials for you to practice using the scale. <br>
                     When you are ready to start the training trials, please click ""Continue"".</p><br></div>",0.5,"",NA,"",NA,"","","",NA,NA,NA,"","","","",NA,NA
"","","","","","html-slider-response",8,3338601,"0.0-8.0-0.0","bxkkbe1j35",31,NA,"<div style=""width:500px;"">
                                    <p style=""font-size:25px;"">Please move the slider all the way to the <br> right endpoint of the scale</p>

                                    </div>
                                </div>",0.335,"",0,"true",0,"false","","",NA,NA,NA,"","","","",NA,NA
"","","","","","html-button-response",9,3340521,"0.0-8.0-1.0","bxkkbe1j35",31,1419,"<p align='center'><b>Not quite!</b> The slider was not placed near the instructed located. Click on 'Continue' to try again. </p>",0.5,"",NA,"",NA,"","","",NA,NA,NA,"","","","",NA,NA
"","","","","","html-slider-response",10,3343164,"0.0-8.1-0.1","bxkkbe1j35",31,NA,"<div style=""width:500px;"">
                                    <p style=""font-size:25px;"">Please move the slider all the way to the <br> right endpoint of the scale</p>

                                    </div>
                                </div>",1,"",0,"true",0,"true","","",NA,NA,NA,"","","","",NA,NA
"","","","","","html-button-response",11,3344505,"0.0-8.1-1.1","bxkkbe1j35",31,839,"<p align='center'><b>Good job!</b> Click on 'Continue' to proceed.</p>",0.5,"",NA,"",NA,"","","",NA,NA,NA,"","","","",NA,NA
"","","","","","html-slider-response",12,3346599,"0.0-9.0-0.0","bxkkbe1j35",31,NA,"<div style=""width:500px;"">
                                    <p style=""font-size:25px;"">Please move the slider all the way to the <br> left endpoint of the scale</p>

                                    </div>
                                </div>",0,"",0,"true",1,"true","","",NA,NA,NA,"","","","",NA,NA
"","","","","","html-button-response",13,3347822,"0.0-9.0-1.0","bxkkbe1j35",31,722,"<p align='center'><b>Good job!</b> Click on 'Continue' to proceed.</p>",0.5,"",NA,"",NA,"","","",NA,NA,NA,"","","","",NA,NA
"","","","","","html-slider-response",14,3351766,"0.0-10.0-0.0","bxkkbe1j35",31,NA,"<div style=""width:500px;"">
                                    <p style=""font-size:25px;"">Please move the slider halfway between the center and right endpoint of the scale</p>

                                    </div>
                                </div>",0.7675,"",0,"true",2,"true","","",NA,NA,NA,"","","","",NA,NA
"","","","","","html-button-response",15,3353071,"0.0-10.0-1.0","bxkkbe1j35",31,804,"<p align='center'><b>Good job!</b> Click on 'Continue' to proceed.</p>",0.5,"",NA,"",NA,"","","",NA,NA,NA,"","","","",NA,NA
"","","","","","html-slider-response",16,3355082,"0.0-11.0-0.0","bxkkbe1j35",31,NA,"<div style=""width:500px;"">
                                    <p style=""font-size:25px;"">Please move the slider halfway between the center and left endpoint of the scale</p>

                                    </div>
                                </div>",0.2175,"",0,"true",3,"false","","",NA,NA,NA,"","","","",NA,NA
"","","","","","html-button-response",17,3357272,"0.0-11.0-1.0","bxkkbe1j35",31,1688,"<p align='center'><b>Not quite!</b> The slider was not placed near the instructed located. Click on 'Continue' to try again. </p>",0.5,"",NA,"",NA,"","","",NA,NA,NA,"","","","",NA,NA
"","","","","","html-slider-response",18,3361933,"0.0-11.1-0.1","bxkkbe1j35",31,NA,"<div style=""width:500px;"">
                                    <p style=""font-size:25px;"">Please move the slider halfway between the center and left endpoint of the scale</p>

                                    </div>
                                </div>",0.2475,"",0,"true",3,"true","","",NA,NA,NA,"","","","",NA,NA
"","","","","","html-button-response",19,3363088,"0.0-11.1-1.1","bxkkbe1j35",31,654,"<p align='center'><b>Good job!</b> Click on 'Continue' to proceed.</p>",0.5,"",NA,"",NA,"","","",NA,NA,NA,"","","","",NA,NA
"","","","","","html-button-response",20,3364055,"0.0-12.0","bxkkbe1j35",31,966,"<p>Great job! You've completed the practice trials. Now you will begin the main task.</p>",0.5,"",NA,"",NA,"","","",NA,NA,NA,"","","","",NA,NA
"","","","","","html-button-response",21,3367172,"0.0-13.0","bxkkbe1j35",31,3117,"<p>In this block of trials, you will be asked to rate how much you associate each map with:</p > <p style = 'font-size:150%; font-weight: bold'>angry</p><br></br>",0.5,"",NA,"",NA,"","","",NA,NA,NA,"","","","",NA,NA
"","","","","","html-slider-response",22,3369850,"0.0-14.0","bxkkbe1j35",31,NA,"<div style=""width:500px;"">
                            <p style=""font-size:50px; font-weight:bold;""
                            >angry</p>
                            <div style=""width:240px; margin: auto;"">
                                <img src=""images/map26_YlGnBu_scaleDef_orientMir_090.png"" style= ""width:200px""alt=""img"">
                            </div>
                        </div>",0.315,"",0,"",NA,"","images/map26_YlGnBu_scaleDef_orientMir_090.png","angry",1,26,26,"YlGnBu","orientMir","scaleDef","090",NA,NA
"","","","","","html-slider-response",23,3372665,"0.0-15.0","bxkkbe1j35",31,NA,"<div style=""width:500px;"">
                            <p style=""font-size:50px; font-weight:bold;""
                            >angry</p>
                            <div style=""width:240px; margin: auto;"">
                                <img src=""images/map27_PiYG_scaleDef_orientMir_090.png"" style= ""width:200px""alt=""img"">
                            </div>
                        </div>",0.135,"",0,"",NA,"","images/map27_PiYG_scaleDef_orientMir_090.png","angry",1,27,27,"PiYG","orientMir","scaleDef","090",NA,NA
"","","","","","html-slider-response",24,3374482,"0.0-16.0","bxkkbe1j35",31,NA,"<div style=""width:500px;"">
                            <p style=""font-size:50px; font-weight:bold;""
                            >angry</p>
                            <div style=""width:240px; margin: auto;"">
                                <img src=""images/map02_PuOr_scaleRev_orientMir_000.png"" style= ""width:200px""alt=""img"">
                            </div>
                        </div>",0.68,"",0,"",NA,"","images/map02_PuOr_scaleRev_orientMir_000.png","angry",1,2,2,"PuOr","orientMir","scaleRev","000",NA,NA
"","","","","","html-slider-response",25,3377099,"0.0-17.0","bxkkbe1j35",31,NA,"<div style=""width:500px;"">
                            <p style=""font-size:50px; font-weight:bold;""
                            >angry</p>
                            <div style=""width:240px; margin: auto;"">
                                <img src=""images/map07_seismic_scaleRev_orientMir_000.png"" style= ""width:200px""alt=""img"">
                            </div>
                        </div>",0.605,"",0,"",NA,"","images/map07_seismic_scaleRev_orientMir_000.png","angry",1,7,7,"seismic","orientMir","scaleRev","000",NA,NA
"","","","","","html-slider-response",26,3379849,"0.0-18.0","bxkkbe1j35",31,NA,"<div style=""width:500px;"">
                            <p style=""font-size:50px; font-weight:bold;""
                            >angry</p>
                            <div style=""width:240px; margin: auto;"">
                                <img src=""images/map13_Greys_scaleRev_orientDef_180.png"" style= ""width:200px""alt=""img"">
                            </div>
                        </div>",0.225,"",0,"",NA,"","images/map13_Greys_scaleRev_orientDef_180.png","angry",1,13,13,"Greys","orientDef","scaleRev","180",NA,NA
"","","","","","html-slider-response",27,3382332,"0.0-19.0","bxkkbe1j35",31,NA,"<div style=""width:500px;"">
                            <p style=""font-size:50px; font-weight:bold;""
                            >angry</p>
                            <div style=""width:240px; margin: auto;"">
                                <img src=""images/map05_coolwarm_scaleDef_orientMir_270.png"" style= ""width:200px""alt=""img"">
                            </div>
                        </div>",0.295,"",0,"",NA,"","images/map05_coolwarm_scaleDef_orientMir_270.png","angry",1,5,5,"coolwarm","orientMir","scaleDef","270",NA,NA
"","","","","","html-slider-response",28,3384532,"0.0-20.0","bxkkbe1j35",31,NA,"<div style=""width:500px;"">
                            <p style=""font-size:50px; font-weight:bold;""
                            >angry</p>
                            <div style=""width:240px; margin: auto;"">
                                <img src=""images/map26_GnBu_scaleRev_orientDef_180.png"" style= ""width:200px""alt=""img"">
                            </div>
                        </div>",0.6175,"",0,"",NA,"","images/map26_GnBu_scaleRev_orientDef_180.png","angry",1,26,26,"GnBu","orientDef","scaleRev","180",NA,NA
"","","","","","html-slider-response",29,3386183,"0.0-21.0","bxkkbe1j35",31,NA,"<div style=""width:500px;"">
                            <p style=""font-size:50px; font-weight:bold;""
                            >angry</p>
                            <div style=""width:240px; margin: auto;"">
                                <img src=""images/map02_RdBu_scaleDef_orientMir_270.png"" style= ""width:200px""alt=""img"">
                            </div>
                        </div>",0.3,"",0,"",NA,"","images/map02_RdBu_scaleDef_orientMir_270.png","angry",1,2,2,"RdBu","orientMir","scaleDef","270",NA,NA
"","","","","","html-slider-response",30,3387699,"0.0-22.0","bxkkbe1j35",31,NA,"<div style=""width:500px;"">
                            <p style=""font-size:50px; font-weight:bold;""
                            >angry</p>
                            <div style=""width:240px; margin: auto;"">
                                <img src=""images/map12_plasma_scaleDef_orientDef_090.png"" style= ""width:200px""alt=""img"">
                            </div>
                        </div>",0.3,"",0,"",NA,"","images/map12_plasma_scaleDef_orientDef_090.png","angry",1,12,12,"plasma","orientDef","scaleDef","090",NA,NA
"","","","","","html-slider-response",31,3389349,"0.0-23.0","bxkkbe1j35",31,NA,"<div style=""width:500px;"">
                            <p style=""font-size:50px; font-weight:bold;""
                            >angry</p>
                            <div style=""width:240px; margin: auto;"">
                                <img src=""images/map15_Greens_scaleRev_orientDef_000.png"" style= ""width:200px""alt=""img"">
                            </div>
                        </div>",0.375,"",0,"",NA,"","images/map15_Greens_scaleRev_orientDef_000.png","angry",1,15,15,"Greens","orientDef","scaleRev","000",NA,NA
"","","","","","html-slider-response",32,3391215,"0.0-24.0","bxkkbe1j35",31,NA,"<div style=""width:500px;"">
                            <p style=""font-size:50px; font-weight:bold;""
                            >angry</p>
                            <div style=""width:240px; margin: auto;"">
                                <img src=""images/map07_berlin_scaleRev_orientMir_180.png"" style= ""width:200px""alt=""img"">
                            </div>
                        </div>",0.8225,"",0,"",NA,"","images/map07_berlin_scaleRev_orientMir_180.png","angry",1,7,7,"berlin","orientMir","scaleRev","180",NA,NA
"","","","","","html-slider-response",33,3393215,"0.0-25.0","bxkkbe1j35",31,NA,"<div style=""width:500px;"">
                            <p style=""font-size:50px; font-weight:bold;""
                            >angry</p>
                            <div style=""width:240px; margin: auto;"">
                                <img src=""images/map15_YlOrRd_scaleDef_orientMir_270.png"" style= ""width:200px""alt=""img"">
                            </div>
                        </div>",1,"",0,"",NA,"","images/map15_YlOrRd_scaleDef_orientMir_270.png","angry",1,15,15,"YlOrRd","orientMir","scaleDef","270",NA,NA
"","","","","","html-slider-response",34,3394899,"0.0-26.0","bxkkbe1j35",31,NA,"<div style=""width:500px;"">
                            <p style=""font-size:50px; font-weight:bold;""
                            >angry</p>
                            <div style=""width:240px; margin: auto;"">
                                <img src=""images/map10_gist_earth_scaleDef_orientDef_270.png"" style= ""width:200px""alt=""img"">
                            </div>
                        </div>",0.31,"",0,"",NA,"","images/map10_gist_earth_scaleDef_orientDef_270.png","angry",1,10,10,"gist","scaleDef","earth","orientDef",NA,NA
"","","","","","html-slider-response",35,3396815,"0.0-27.0","bxkkbe1j35",31,NA,"<div style=""width:500px;"">
                            <p style=""font-size:50px; font-weight:bold;""
                            >angry</p>
                            <div style=""width:240px; margin: auto;"">
                                <img src=""images/map07_seismic_scaleDef_orientDef_270.png"" style= ""width:200px""alt=""img"">
                            </div>
                        </div>",0.605,"",0,"",NA,"","images/map07_seismic_scaleDef_orientDef_270.png","angry",1,7,7,"seismic","orientDef","scaleDef","270",NA,NA
"","","","","","html-slider-response",36,3397765,"0.0-28.0","bxkkbe1j35",31,NA,"<div style=""width:500px;"">
                            <p style=""font-size:50px; font-weight:bold;""
                            >angry</p>
                            <div style=""width:240px; margin: auto;"">
                                <img src=""images/map12_viridis_scaleRev_orientDef_000.png"" style= ""width:200px""alt=""img"">
                            </div>
                        </div>",0.37,"",0,"",NA,"","images/map12_viridis_scaleRev_orientDef_000.png","angry",1,12,12,"viridis","orientDef","scaleRev","000",NA,NA
"","","","","","html-slider-response",37,3398748,"0.0-29.0","bxkkbe1j35",31,NA,"<div style=""width:500px;"">
                            <p style=""font-size:50px; font-weight:bold;""
                            >angry</p>
                            <div style=""width:240px; margin: auto;"">
                                <img src=""images/map07_managua_scaleDef_orientMir_270.png"" style= ""width:200px""alt=""img"">
                            </div>
                        </div>",0.335,"",0,"",NA,"","images/map07_managua_scaleDef_orientMir_270.png","angry",1,7,7,"managua","orientMir","scaleDef","270",NA,NA
"","","","","","html-slider-response",38,3399699,"0.0-30.0","bxkkbe1j35",31,NA,"<div style=""width:500px;"">
                            <p style=""font-size:50px; font-weight:bold;""
                            >angry</p>
                            <div style=""width:240px; margin: auto;"">
                                <img src=""images/map07_berlin_scaleDef_orientMir_090.png"" style= ""width:200px""alt=""img"">
                            </div>
                        </div>",0.295,"",0,"",NA,"","images/map07_berlin_scaleDef_orientMir_090.png","angry",1,7,7,"berlin","orientMir","scaleDef","090",NA,NA
"","","","","","html-slider-response",39,3400915,"0.0-31.0","bxkkbe1j35",31,NA,"<div style=""width:500px;"">
                            <p style=""font-size:50px; font-weight:bold;""
                            >angry</p>
                            <div style=""width:240px; margin: auto;"">
                                <img src=""images/map05_RdBu_scaleRev_orientDef_000.png"" style= ""width:200px""alt=""img"">
                            </div>
                        </div>",0.185,"",0,"",NA,"","images/map05_RdBu_scaleRev_orientDef_000.png","angry",1,5,5,"RdBu","orientDef","scaleRev","000",NA,NA
"","","","","","html-slider-response",40,3401899,"0.0-32.0","bxkkbe1j35",31,NA,"<div style=""width:500px;"">
                            <p style=""font-size:50px; font-weight:bold;""
                            >angry</p>
                            <div style=""width:240px; margin: auto;"">
                                <img src=""images/map23_BuPu_scaleDef_orientMir_270.png"" style= ""width:200px""alt=""img"">
                            </div>
                        </div>",0.62,"",0,"",NA,"","images/map23_BuPu_scaleDef_orientMir_270.png","angry",1,23,23,"BuPu","orientMir","scaleDef","270",NA,NA
"","","","","","html-slider-response",41,3402750,"0.0-33.0","bxkkbe1j35",31,NA,"<div style=""width:500px;"">
                            <p style=""font-size:50px; font-weight:bold;""
                            >angry</p>
                            <div style=""width:240px; margin: auto;"">
                                <img src=""images/map12_plasma_scaleRev_orientDef_180.png"" style= ""width:200px""alt=""img"">
                            </div>
                        </div>",0.35,"",0,"",NA,"","images/map12_plasma_scaleRev_orientDef_180.png","angry",1,12,12,"plasma","orientDef","scaleRev","180",NA,NA
"","","","","","html-slider-response",42,3403731,"0.0-34.0","bxkkbe1j35",31,NA,"<div style=""width:500px;"">
                            <p style=""font-size:50px; font-weight:bold;""
                            >angry</p>
                            <div style=""width:240px; margin: auto;"">
                                <img src=""images/map07_bwr_scaleDef_orientDef_090.png"" style= ""width:200px""alt=""img"">
                            </div>
                        </div>",0.4675,"",0,"",NA,"","images/map07_bwr_scaleDef_orientDef_090.png","angry",1,7,7,"bwr","orientDef","scaleDef","090",NA,NA
"","","","","","html-slider-response",43,3404565,"0.0-35.0","bxkkbe1j35",31,NA,"<div style=""width:500px;"">
                            <p style=""font-size:50px; font-weight:bold;""
                            >angry</p>
                            <div style=""width:240px; margin: auto;"">
                                <img src=""images/map23_RdPu_scaleDef_orientMir_090.png"" style= ""width:200px""alt=""img"">
                            </div>
                        </div>",0.6025,"",0,"",NA,"","images/map23_RdPu_scaleDef_orientMir_090.png","angry",1,23,23,"RdPu","orientMir","scaleDef","090",NA,NA
"","","","","","html-slider-response",44,3405882,"0.0-36.0","bxkkbe1j35",31,NA,"<div style=""width:500px;"">
                            <p style=""font-size:50px; font-weight:bold;""
                            >angry</p>
                            <div style=""width:240px; margin: auto;"">
                                <img src=""images/map13_Greens_scaleDef_orientMir_270.png"" style= ""width:200px""alt=""img"">
                            </div>
                        </div>",0.245,"",0,"",NA,"","images/map13_Greens_scaleDef_orientMir_270.png","angry",1,13,13,"Greens","orientMir","scaleDef","270",NA,NA
"","","","","","html-slider-response",45,3410047,"0.0-37.0","bxkkbe1j35",31,NA,"<div style=""width:500px;"">
                            <p style=""font-size:50px; font-weight:bold;""
                            >angry</p>
                            <div style=""width:240px; margin: auto;"">
                                <img src=""images/map05_Spectral_scaleDef_orientMir_090.png"" style= ""width:200px""alt=""img"">
                            </div>
                        </div>",0.705,"",0,"",NA,"","images/map05_Spectral_scaleDef_orientMir_090.png","angry",1,5,5,"Spectral","orientMir","scaleDef","090",NA,NA
"","","","","","html-slider-response",46,3411997,"0.0-38.0","bxkkbe1j35",31,NA,"<div style=""width:500px;"">
                            <p style=""font-size:50px; font-weight:bold;""
                            >angry</p>
                            <div style=""width:240px; margin: auto;"">
                                <img src=""images/map27_PRGn_scaleDef_orientMir_270.png"" style= ""width:200px""alt=""img"">
                            </div>
                        </div>",0.3625,"",0,"",NA,"","images/map27_PRGn_scaleDef_orientMir_270.png","angry",1,27,27,"PRGn","orientMir","scaleDef","270",NA,NA
"","","","","","html-slider-response",47,3414884,"0.0-39.0","bxkkbe1j35",31,NA,"<div style=""width:500px;"">
                            <p style=""font-size:50px; font-weight:bold;""
                            >angry</p>
                            <div style=""width:240px; margin: auto;"">
                                <img src=""images/map26_GnBu_scaleDef_orientDef_090.png"" style= ""width:200px""alt=""img"">
                            </div>
                        </div>",0.365,"",0,"",NA,"","images/map26_GnBu_scaleDef_orientDef_090.png","angry",1,26,26,"GnBu","orientDef","scaleDef","090",NA,NA
"","","","","","html-slider-response",48,3415981,"0.0-40.0","bxkkbe1j35",31,NA,"<div style=""width:500px;"">
                            <p style=""font-size:50px; font-weight:bold;""
                            >angry</p>
                            <div style=""width:240px; margin: auto;"">
                                <img src=""images/map10_vanimo_scaleDef_orientDef_090.png"" style= ""width:200px""alt=""img"">
                            </div>
                        </div>",0.705,"",0,"",NA,"","images/map10_vanimo_scaleDef_orientDef_090.png","angry",1,10,10,"vanimo","orientDef","scaleDef","090",NA,NA
"","","","","","html-slider-response",49,3416981,"0.0-41.0","bxkkbe1j35",31,NA,"<div style=""width:500px;"">
                            <p style=""font-size:50px; font-weight:bold;""
                            >angry</p>
                            <div style=""width:240px; margin: auto;"">
                                <img src=""images/map27_PuBuGn_scaleRev_orientDef_000.png"" style= ""width:200px""alt=""img"">
                            </div>
                        </div>",0.1875,"",0,"",NA,"","images/map27_PuBuGn_scaleRev_orientDef_000.png","angry",1,27,27,"PuBuGn","orientDef","scaleRev","000",NA,NA
"","","","","","html-slider-response",50,3418581,"0.0-42.0","bxkkbe1j35",31,NA,"<div style=""width:500px;"">
                            <p style=""font-size:50px; font-weight:bold;""
                            >angry</p>
                            <div style=""width:240px; margin: auto;"">
                                <img src=""images/map15_Reds_scaleRev_orientMir_000.png"" style= ""width:200px""alt=""img"">
                            </div>
                        </div>",0.785,"",0,"",NA,"","images/map15_Reds_scaleRev_orientMir_000.png","angry",1,15,15,"Reds","orientMir","scaleRev","000",NA,NA
"","","","","","html-slider-response",51,3419881,"0.0-43.0","bxkkbe1j35",31,NA,"<div style=""width:500px;"">
                            <p style=""font-size:50px; font-weight:bold;""
                            >angry</p>
                            <div style=""width:240px; margin: auto;"">
                                <img src=""images/map26_PuBuGn_scaleDef_orientMir_270.png"" style= ""width:200px""alt=""img"">
                            </div>
                        </div>",0.195,"",0,"",NA,"","images/map26_PuBuGn_scaleDef_orientMir_270.png","angry",1,26,26,"PuBuGn","orientMir","scaleDef","270",NA,NA
"","","","","","html-slider-response",52,3421066,"0.0-44.0","bxkkbe1j35",31,NA,"<div style=""width:500px;"">
                            <p style=""font-size:50px; font-weight:bold;""
                            >angry</p>
                            <div style=""width:240px; margin: auto;"">
                                <img src=""images/map23_PuRd_scaleDef_orientDef_270.png"" style= ""width:200px""alt=""img"">
                            </div>
                        </div>",0.35,"",0,"",NA,"","images/map23_PuRd_scaleDef_orientDef_270.png","angry",1,23,23,"PuRd","orientDef","scaleDef","270",NA,NA
"","","","","","html-slider-response",53,3422281,"0.0-45.0","bxkkbe1j35",31,NA,"<div style=""width:500px;"">
                            <p style=""font-size:50px; font-weight:bold;""
                            >angry</p>
                            <div style=""width:240px; margin: auto;"">
                                <img src=""images/map27_YlGn_scaleDef_orientDef_270.png"" style= ""width:200px""alt=""img"">
                            </div>
                        </div>",0.685,"",0,"",NA,"","images/map27_YlGn_scaleDef_orientDef_270.png","angry",1,27,27,"YlGn","orientDef","scaleDef","270",NA,NA
"","","","","","html-slider-response",54,3424284,"0.0-46.0","bxkkbe1j35",31,NA,"<div style=""width:500px;"">
                            <p style=""font-size:50px; font-weight:bold;""
                            >angry</p>
                            <div style=""width:240px; margin: auto;"">
                                <img src=""images/map23_YlOrRd_scaleRev_orientDef_000.png"" style= ""width:200px""alt=""img"">
                            </div>
                        </div>",0.295,"",0,"",NA,"","images/map23_YlOrRd_scaleRev_orientDef_000.png","angry",1,23,23,"YlOrRd","orientDef","scaleRev","000",NA,NA
"","","","","","html-slider-response",55,3425781,"0.0-47.0","bxkkbe1j35",31,NA,"<div style=""width:500px;"">
                            <p style=""font-size:50px; font-weight:bold;""
                            >angry</p>
                            <div style=""width:240px; margin: auto;"">
                                <img src=""images/map23_RdPu_scaleRev_orientMir_180.png"" style= ""width:200px""alt=""img"">
                            </div>
                        </div>",0.295,"",0,"",NA,"","images/map23_RdPu_scaleRev_orientMir_180.png","angry",1,23,23,"RdPu","orientMir","scaleRev","180",NA,NA
"","","","","","html-slider-response",56,3427182,"0.0-48.0","bxkkbe1j35",31,NA,"<div style=""width:500px;"">
                            <p style=""font-size:50px; font-weight:bold;""
                            >angry</p>
                            <div style=""width:240px; margin: auto;"">
                                <img src=""images/map02_PuOr_scaleDef_orientDef_270.png"" style= ""width:200px""alt=""img"">
                            </div>
                        </div>",0.295,"",0,"",NA,"","images/map02_PuOr_scaleDef_orientDef_270.png","angry",1,2,2,"PuOr","orientDef","scaleDef","270",NA,NA
"","","","","","html-slider-response",57,3428514,"0.0-49.0","bxkkbe1j35",31,NA,"<div style=""width:500px;"">
                            <p style=""font-size:50px; font-weight:bold;""
                            >angry</p>
                            <div style=""width:240px; margin: auto;"">
                                <img src=""images/map05_RdYlBu_scaleDef_orientDef_090.png"" style= ""width:200px""alt=""img"">
                            </div>
                        </div>",0.8025,"",0,"",NA,"","images/map05_RdYlBu_scaleDef_orientDef_090.png","angry",1,5,5,"RdYlBu","orientDef","scaleDef","090",NA,NA
"","","","","","html-slider-response",58,3429847,"0.0-50.0","bxkkbe1j35",31,NA,"<div style=""width:500px;"">
                            <p style=""font-size:50px; font-weight:bold;""
                            >angry</p>
                            <div style=""width:240px; margin: auto;"">
                                <img src=""images/map13_Purples_scaleDef_orientDef_270.png"" style= ""width:200px""alt=""img"">
                            </div>
                        </div>",0.2175,"",0,"",NA,"","images/map13_Purples_scaleDef_orientDef_270.png","angry",1,13,13,"Purples","orientDef","scaleDef","270",NA,NA
"","","","","","html-slider-response",59,3430948,"0.0-51.0","bxkkbe1j35",31,NA,"<div style=""width:500px;"">
                            <p style=""font-size:50px; font-weight:bold;""
                            >angry</p>
                            <div style=""width:240px; margin: auto;"">
                                <img src=""images/map26_YlGnBu_scaleRev_orientMir_180.png"" style= ""width:200px""alt=""img"">
                            </div>
                        </div>",0.6225,"",0,"",NA,"","images/map26_YlGnBu_scaleRev_orientMir_180.png","angry",1,26,26,"YlGnBu","orientMir","scaleRev","180",NA,NA
"","","","","","html-slider-response",60,3431882,"0.0-52.0","bxkkbe1j35",31,NA,"<div style=""width:500px;"">
                            <p style=""font-size:50px; font-weight:bold;""
                            >angry</p>
                            <div style=""width:240px; margin: auto;"">
                                <img src=""images/map12_magma_scaleDef_orientMir_090.png"" style= ""width:200px""alt=""img"">
                            </div>
                        </div>",0.3825,"",0,"",NA,"","images/map12_magma_scaleDef_orientMir_090.png","angry",1,12,12,"magma","orientMir","scaleDef","090",NA,NA
"","","","","","html-slider-response",61,3432781,"0.0-53.0","bxkkbe1j35",31,NA,"<div style=""width:500px;"">
                            <p style=""font-size:50px; font-weight:bold;""
                            >angry</p>
                            <div style=""width:240px; margin: auto;"">
                                <img src=""images/map10_turbo_scaleDef_orientMir_090.png"" style= ""width:200px""alt=""img"">
                            </div>
                        </div>",0.175,"",0,"",NA,"","images/map10_turbo_scaleDef_orientMir_090.png","angry",1,10,10,"turbo","orientMir","scaleDef","090",NA,NA
"","","","","","html-button-response",62,3436354,"0.0-54.0","bxkkbe1j35",31,3071,"<p>You are doing great!<br></br> You are halway done with the current block. When you are ready to continue, click the 'Continue' button.</p>",0.5,"",NA,"",NA,"","","",NA,NA,NA,"","","","",NA,NA
"","","","","","html-slider-response",63,3437264,"0.0-55.0","bxkkbe1j35",31,NA,"<div style=""width:500px;"">
                            <p style=""font-size:50px; font-weight:bold;""
                            >angry</p>
                            <div style=""width:240px; margin: auto;"">
                                <img src=""images/map27_PiYG_scaleRev_orientMir_180.png"" style= ""width:200px""alt=""img"">
                            </div>
                        </div>",0.205,"",0,"",NA,"","images/map27_PiYG_scaleRev_orientMir_180.png","angry",1,27,27,"PiYG","orientMir","scaleRev","180",NA,NA
"","","","","","html-slider-response",64,3437914,"0.0-56.0","bxkkbe1j35",31,NA,"<div style=""width:500px;"">
                            <p style=""font-size:50px; font-weight:bold;""
                            >angry</p>
                            <div style=""width:240px; margin: auto;"">
                                <img src=""images/map13_Purples_scaleRev_orientMir_000.png"" style= ""width:200px""alt=""img"">
                            </div>
                        </div>",0.3775,"",0,"",NA,"","images/map13_Purples_scaleRev_orientMir_000.png","angry",1,13,13,"Purples","orientMir","scaleRev","000",NA,NA
"","","","","","html-slider-response",65,3438648,"0.0-57.0","bxkkbe1j35",31,NA,"<div style=""width:500px;"">
                            <p style=""font-size:50px; font-weight:bold;""
                            >angry</p>
                            <div style=""width:240px; margin: auto;"">
                                <img src=""images/map12_inferno_scaleRev_orientMir_000.png"" style= ""width:200px""alt=""img"">
                            </div>
                        </div>",0.62,"",0,"",NA,"","images/map12_inferno_scaleRev_orientMir_000.png","angry",1,12,12,"inferno","orientMir","scaleRev","000",NA,NA
"","","","","","html-slider-response",66,3439482,"0.0-58.0","bxkkbe1j35",31,NA,"<div style=""width:500px;"">
                            <p style=""font-size:50px; font-weight:bold;""
                            >angry</p>
                            <div style=""width:240px; margin: auto;"">
                                <img src=""images/map02_BrBG_scaleRev_orientDef_180.png"" style= ""width:200px""alt=""img"">
                            </div>
                        </div>",0.715,"",0,"",NA,"","images/map02_BrBG_scaleRev_orientDef_180.png","angry",1,2,2,"BrBG","orientDef","scaleRev","180",NA,NA
"","","","","","html-slider-response",67,3440247,"0.0-59.0","bxkkbe1j35",31,NA,"<div style=""width:500px;"">
                            <p style=""font-size:50px; font-weight:bold;""
                            >angry</p>
                            <div style=""width:240px; margin: auto;"">
                                <img src=""images/map05_RdYlBu_scaleRev_orientDef_180.png"" style= ""width:200px""alt=""img"">
                            </div>
                        </div>",0.3425,"",0,"",NA,"","images/map05_RdYlBu_scaleRev_orientDef_180.png","angry",1,5,5,"RdYlBu","orientDef","scaleRev","180",NA,NA
"","","","","","html-slider-response",68,3441081,"0.0-60.0","bxkkbe1j35",31,NA,"<div style=""width:500px;"">
                            <p style=""font-size:50px; font-weight:bold;""
                            >angry</p>
                            <div style=""width:240px; margin: auto;"">
                                <img src=""images/map02_PRGn_scaleRev_orientDef_000.png"" style= ""width:200px""alt=""img"">
                            </div>
                        </div>",0.205,"",0,"",NA,"","images/map02_PRGn_scaleRev_orientDef_000.png","angry",1,2,2,"PRGn","orientDef","scaleRev","000",NA,NA
"","","","","","html-slider-response",69,3441848,"0.0-61.0","bxkkbe1j35",31,NA,"<div style=""width:500px;"">
                            <p style=""font-size:50px; font-weight:bold;""
                            >angry</p>
                            <div style=""width:240px; margin: auto;"">
                                <img src=""images/map05_RdYlGn_scaleDef_orientDef_270.png"" style= ""width:200px""alt=""img"">
                            </div>
                        </div>",0.4725,"",0,"",NA,"","images/map05_RdYlGn_scaleDef_orientDef_270.png","angry",1,5,5,"RdYlGn","orientDef","scaleDef","270",NA,NA
"","","","","","html-slider-response",70,3442498,"0.0-62.0","bxkkbe1j35",31,NA,"<div style=""width:500px;"">
                            <p style=""font-size:50px; font-weight:bold;""
                            >angry</p>
                            <div style=""width:240px; margin: auto;"">
                                <img src=""images/map23_OrRd_scaleDef_orientDef_090.png"" style= ""width:200px""alt=""img"">
                            </div>
                        </div>",0.6575,"",0,"",NA,"","images/map23_OrRd_scaleDef_orientDef_090.png","angry",1,23,23,"OrRd","orientDef","scaleDef","090",NA,NA
"","","","","","html-slider-response",71,3443165,"0.0-63.0","bxkkbe1j35",31,NA,"<div style=""width:500px;"">
                            <p style=""font-size:50px; font-weight:bold;""
                            >angry</p>
                            <div style=""width:240px; margin: auto;"">
                                <img src=""images/map13_Blues_scaleDef_orientMir_090.png"" style= ""width:200px""alt=""img"">
                            </div>
                        </div>",0.755,"",0,"",NA,"","images/map13_Blues_scaleDef_orientMir_090.png","angry",1,13,13,"Blues","orientMir","scaleDef","090",NA,NA
"","","","","","html-slider-response",72,3444098,"0.0-64.0","bxkkbe1j35",31,NA,"<div style=""width:500px;"">
                            <p style=""font-size:50px; font-weight:bold;""
                            >angry</p>
                            <div style=""width:240px; margin: auto;"">
                                <img src=""images/map02_RdGy_scaleDef_orientMir_090.png"" style= ""width:200px""alt=""img"">
                            </div>
                        </div>",0.305,"",0,"",NA,"","images/map02_RdGy_scaleDef_orientMir_090.png","angry",1,2,2,"RdGy","orientMir","scaleDef","090",NA,NA
"","","","","","html-slider-response",73,3444831,"0.0-65.0","bxkkbe1j35",31,NA,"<div style=""width:500px;"">
                            <p style=""font-size:50px; font-weight:bold;""
                            >angry</p>
                            <div style=""width:240px; margin: auto;"">
                                <img src=""images/map13_Blues_scaleRev_orientMir_180.png"" style= ""width:200px""alt=""img"">
                            </div>
                        </div>",0.4125,"",0,"",NA,"","images/map13_Blues_scaleRev_orientMir_180.png","angry",1,13,13,"Blues","orientMir","scaleRev","180",NA,NA
"","","","","","html-slider-response",74,3445531,"0.0-66.0","bxkkbe1j35",31,NA,"<div style=""width:500px;"">
                            <p style=""font-size:50px; font-weight:bold;""
                            >angry</p>
                            <div style=""width:240px; margin: auto;"">
                                <img src=""images/map27_BuGn_scaleRev_orientDef_180.png"" style= ""width:200px""alt=""img"">
                            </div>
                        </div>",0.24,"",0,"",NA,"","images/map27_BuGn_scaleRev_orientDef_180.png","angry",1,27,27,"BuGn","orientDef","scaleRev","180",NA,NA
"","","","","","html-slider-response",75,3446582,"0.0-67.0","bxkkbe1j35",31,NA,"<div style=""width:500px;"">
                            <p style=""font-size:50px; font-weight:bold;""
                            >angry</p>
                            <div style=""width:240px; margin: auto;"">
                                <img src=""images/map26_PuBu_scaleDef_orientDef_270.png"" style= ""width:200px""alt=""img"">
                            </div>
                        </div>",0.3875,"",0,"",NA,"","images/map26_PuBu_scaleDef_orientDef_270.png","angry",1,26,26,"PuBu","orientDef","scaleDef","270",NA,NA
"","","","","","html-slider-response",76,3447881,"0.0-68.0","bxkkbe1j35",31,NA,"<div style=""width:500px;"">
                            <p style=""font-size:50px; font-weight:bold;""
                            >angry</p>
                            <div style=""width:240px; margin: auto;"">
                                <img src=""images/map15_Reds_scaleDef_orientDef_270.png"" style= ""width:200px""alt=""img"">
                            </div>
                        </div>",0.62,"",0,"",NA,"","images/map15_Reds_scaleDef_orientDef_270.png","angry",1,15,15,"Reds","orientDef","scaleDef","270",NA,NA
"","","","","","html-slider-response",77,3449348,"0.0-69.0","bxkkbe1j35",31,NA,"<div style=""width:500px;"">
                            <p style=""font-size:50px; font-weight:bold;""
                            >angry</p>
                            <div style=""width:240px; margin: auto;"">
                                <img src=""images/map10_turbo_scaleRev_orientMir_180.png"" style= ""width:200px""alt=""img"">
                            </div>
                        </div>",0.2725,"",0,"",NA,"","images/map10_turbo_scaleRev_orientMir_180.png","angry",1,10,10,"turbo","orientMir","scaleRev","180",NA,NA
"","","","","","html-slider-response",78,3450764,"0.0-70.0","bxkkbe1j35",31,NA,"<div style=""width:500px;"">
                            <p style=""font-size:50px; font-weight:bold;""
                            >angry</p>
                            <div style=""width:240px; margin: auto;"">
                                <img src=""images/map05_Spectral_scaleRev_orientMir_180.png"" style= ""width:200px""alt=""img"">
                            </div>
                        </div>",0.815,"",0,"",NA,"","images/map05_Spectral_scaleRev_orientMir_180.png","angry",1,5,5,"Spectral","orientMir","scaleRev","180",NA,NA
"","","","","","html-slider-response",79,3451631,"0.0-71.0","bxkkbe1j35",31,NA,"<div style=""width:500px;"">
                            <p style=""font-size:50px; font-weight:bold;""
                            >angry</p>
                            <div style=""width:240px; margin: auto;"">
                                <img src=""images/map23_PuRd_scaleRev_orientMir_000.png"" style= ""width:200px""alt=""img"">
                            </div>
                        </div>",0.115,"",0,"",NA,"","images/map23_PuRd_scaleRev_orientMir_000.png","angry",1,23,23,"PuRd","orientMir","scaleRev","000",NA,NA
"","","","","","html-slider-response",80,3452615,"0.0-72.0","bxkkbe1j35",31,NA,"<div style=""width:500px;"">
                            <p style=""font-size:50px; font-weight:bold;""
                            >angry</p>
                            <div style=""width:240px; margin: auto;"">
                                <img src=""images/map10_viridis_scaleDef_orientMir_270.png"" style= ""width:200px""alt=""img"">
                            </div>
                        </div>",0.4475,"",0,"",NA,"","images/map10_viridis_scaleDef_orientMir_270.png","angry",1,10,10,"viridis","orientMir","scaleDef","270",NA,NA
"","","","","","html-slider-response",81,3453348,"0.0-73.0","bxkkbe1j35",31,NA,"<div style=""width:500px;"">
                            <p style=""font-size:50px; font-weight:bold;""
                            >angry</p>
                            <div style=""width:240px; margin: auto;"">
                                <img src=""images/map27_YlGn_scaleRev_orientMir_000.png"" style= ""width:200px""alt=""img"">
                            </div>
                        </div>",0.625,"",0,"",NA,"","images/map27_YlGn_scaleRev_orientMir_000.png","angry",1,27,27,"YlGn","orientMir","scaleRev","000",NA,NA
"","","","","","html-slider-response",82,3454031,"0.0-74.0","bxkkbe1j35",31,NA,"<div style=""width:500px;"">
                            <p style=""font-size:50px; font-weight:bold;""
                            >angry</p>
                            <div style=""width:240px; margin: auto;"">
                                <img src=""images/map12_inferno_scaleDef_orientDef_270.png"" style= ""width:200px""alt=""img"">
                            </div>
                        </div>",0.7975,"",0,"",NA,"","images/map12_inferno_scaleDef_orientDef_270.png","angry",1,12,12,"inferno","orientDef","scaleDef","270",NA,NA
"","","","","","html-slider-response",83,3454731,"0.0-75.0","bxkkbe1j35",31,NA,"<div style=""width:500px;"">
                            <p style=""font-size:50px; font-weight:bold;""
                            >angry</p>
                            <div style=""width:240px; margin: auto;"">
                                <img src=""images/map26_BuPu_scaleRev_orientDef_000.png"" style= ""width:200px""alt=""img"">
                            </div>
                        </div>",0.3475,"",0,"",NA,"","images/map26_BuPu_scaleRev_orientDef_000.png","angry",1,26,26,"BuPu","orientDef","scaleRev","000",NA,NA
"","","","","","html-slider-response",84,3455448,"0.0-76.0","bxkkbe1j35",31,NA,"<div style=""width:500px;"">
                            <p style=""font-size:50px; font-weight:bold;""
                            >angry</p>
                            <div style=""width:240px; margin: auto;"">
                                <img src=""images/map27_BuGn_scaleDef_orientDef_090.png"" style= ""width:200px""alt=""img"">
                            </div>
                        </div>",0.235,"",0,"",NA,"","images/map27_BuGn_scaleDef_orientDef_090.png","angry",1,27,27,"BuGn","orientDef","scaleDef","090",NA,NA
"","","","","","html-slider-response",85,3456447,"0.0-77.0","bxkkbe1j35",31,NA,"<div style=""width:500px;"">
                            <p style=""font-size:50px; font-weight:bold;""
                            >angry</p>
                            <div style=""width:240px; margin: auto;"">
                                <img src=""images/map12_magma_scaleRev_orientMir_180.png"" style= ""width:200px""alt=""img"">
                            </div>
                        </div>",0.4325,"",0,"",NA,"","images/map12_magma_scaleRev_orientMir_180.png","angry",1,12,12,"magma","orientMir","scaleRev","180",NA,NA
"","","","","","html-slider-response",86,3457131,"0.0-78.0","bxkkbe1j35",31,NA,"<div style=""width:500px;"">
                            <p style=""font-size:50px; font-weight:bold;""
                            >angry</p>
                            <div style=""width:240px; margin: auto;"">
                                <img src=""images/map23_OrRd_scaleRev_orientDef_180.png"" style= ""width:200px""alt=""img"">
                            </div>
                        </div>",0.17,"",0,"",NA,"","images/map23_OrRd_scaleRev_orientDef_180.png","angry",1,23,23,"OrRd","orientDef","scaleRev","180",NA,NA
"","","","","","html-slider-response",87,3458397,"0.0-79.0","bxkkbe1j35",31,NA,"<div style=""width:500px;"">
                            <p style=""font-size:50px; font-weight:bold;""
                            >angry</p>
                            <div style=""width:240px; margin: auto;"">
                                <img src=""images/map02_RdGy_scaleRev_orientMir_180.png"" style= ""width:200px""alt=""img"">
                            </div>
                        </div>",0.655,"",0,"",NA,"","images/map02_RdGy_scaleRev_orientMir_180.png","angry",1,2,2,"RdGy","orientMir","scaleRev","180",NA,NA
"","","","","","html-slider-response",88,3459282,"0.0-80.0","bxkkbe1j35",31,NA,"<div style=""width:500px;"">
                            <p style=""font-size:50px; font-weight:bold;""
                            >angry</p>
                            <div style=""width:240px; margin: auto;"">
                                <img src=""images/map13_Greys_scaleDef_orientDef_090.png"" style= ""width:200px""alt=""img"">
                            </div>
                        </div>",0.405,"",0,"",NA,"","images/map13_Greys_scaleDef_orientDef_090.png","angry",1,13,13,"Greys","orientDef","scaleDef","090",NA,NA
"","","","","","html-slider-response",89,3460164,"0.0-81.0","bxkkbe1j35",31,NA,"<div style=""width:500px;"">
                            <p style=""font-size:50px; font-weight:bold;""
                            >angry</p>
                            <div style=""width:240px; margin: auto;"">
                                <img src=""images/map26_PuBu_scaleRev_orientMir_000.png"" style= ""width:200px""alt=""img"">
                            </div>
                        </div>",0.895,"",0,"",NA,"","images/map26_PuBu_scaleRev_orientMir_000.png","angry",1,26,26,"PuBu","orientMir","scaleRev","000",NA,NA
"","","","","","html-slider-response",90,3460914,"0.0-82.0","bxkkbe1j35",31,NA,"<div style=""width:500px;"">
                            <p style=""font-size:50px; font-weight:bold;""
                            >angry</p>
                            <div style=""width:240px; margin: auto;"">
                                <img src=""images/map15_Oranges_scaleDef_orientDef_090.png"" style= ""width:200px""alt=""img"">
                            </div>
                        </div>",0.315,"",0,"",NA,"","images/map15_Oranges_scaleDef_orientDef_090.png","angry",1,15,15,"Oranges","orientDef","scaleDef","090",NA,NA
"","","","","","html-slider-response",91,3461831,"0.0-83.0","bxkkbe1j35",31,NA,"<div style=""width:500px;"">
                            <p style=""font-size:50px; font-weight:bold;""
                            >angry</p>
                            <div style=""width:240px; margin: auto;"">
                                <img src=""images/map10_gist_earth_scaleRev_orientMir_000.png"" style= ""width:200px""alt=""img"">
                            </div>
                        </div>",0.4725,"",0,"",NA,"","images/map10_gist_earth_scaleRev_orientMir_000.png","angry",1,10,10,"gist","scaleRev","earth","orientMir",NA,NA
"","","","","","html-slider-response",92,3462997,"0.0-84.0","bxkkbe1j35",31,NA,"<div style=""width:500px;"">
                            <p style=""font-size:50px; font-weight:bold;""
                            >angry</p>
                            <div style=""width:240px; margin: auto;"">
                                <img src=""images/map10_managua_scaleRev_orientDef_000.png"" style= ""width:200px""alt=""img"">
                            </div>
                        </div>",0.5875,"",0,"",NA,"","images/map10_managua_scaleRev_orientDef_000.png","angry",1,10,10,"managua","orientDef","scaleRev","000",NA,NA
"","","","","","html-slider-response",93,3463914,"0.0-85.0","bxkkbe1j35",31,NA,"<div style=""width:500px;"">
                            <p style=""font-size:50px; font-weight:bold;""
                            >angry</p>
                            <div style=""width:240px; margin: auto;"">
                                <img src=""images/map07_bwr_scaleRev_orientDef_180.png"" style= ""width:200px""alt=""img"">
                            </div>
                        </div>",0.245,"",0,"",NA,"","images/map07_bwr_scaleRev_orientDef_180.png","angry",1,7,7,"bwr","orientDef","scaleRev","180",NA,NA
"","","","","","html-slider-response",94,3464897,"0.0-86.0","bxkkbe1j35",31,NA,"<div style=""width:500px;"">
                            <p style=""font-size:50px; font-weight:bold;""
                            >angry</p>
                            <div style=""width:240px; margin: auto;"">
                                <img src=""images/map15_Oranges_scaleRev_orientDef_180.png"" style= ""width:200px""alt=""img"">
                            </div>
                        </div>",0.6525,"",0,"",NA,"","images/map15_Oranges_scaleRev_orientDef_180.png","angry",1,15,15,"Oranges","orientDef","scaleRev","180",NA,NA
"","","","","","html-slider-response",95,3466297,"0.0-87.0","bxkkbe1j35",31,NA,"<div style=""width:500px;"">
                            <p style=""font-size:50px; font-weight:bold;""
                            >angry</p>
                            <div style=""width:240px; margin: auto;"">
                                <img src=""images/map05_RdYlGn_scaleRev_orientMir_000.png"" style= ""width:200px""alt=""img"">
                            </div>
                        </div>",0.2925,"",0,"",NA,"","images/map05_RdYlGn_scaleRev_orientMir_000.png","angry",1,5,5,"RdYlGn","orientMir","scaleRev","000",NA,NA
"","","","","","html-slider-response",96,3467448,"0.0-88.0","bxkkbe1j35",31,NA,"<div style=""width:500px;"">
                            <p style=""font-size:50px; font-weight:bold;""
                            >angry</p>
                            <div style=""width:240px; margin: auto;"">
                                <img src=""images/map15_YlOrBr_scaleRev_orientMir_180.png"" style= ""width:200px""alt=""img"">
                            </div>
                        </div>",0.435,"",0,"",NA,"","images/map15_YlOrBr_scaleRev_orientMir_180.png","angry",1,15,15,"YlOrBr","orientMir","scaleRev","180",NA,NA
"","","","","","html-slider-response",97,3468497,"0.0-89.0","bxkkbe1j35",31,NA,"<div style=""width:500px;"">
                            <p style=""font-size:50px; font-weight:bold;""
                            >angry</p>
                            <div style=""width:240px; margin: auto;"">
                                <img src=""images/map07_coolwarm_scaleRev_orientDef_000.png"" style= ""width:200px""alt=""img"">
                            </div>
                        </div>",0.6575,"",0,"",NA,"","images/map07_coolwarm_scaleRev_orientDef_000.png","angry",1,7,7,"coolwarm","orientDef","scaleRev","000",NA,NA
"","","","","","html-slider-response",98,3469381,"0.0-90.0","bxkkbe1j35",31,NA,"<div style=""width:500px;"">
                            <p style=""font-size:50px; font-weight:bold;""
                            >angry</p>
                            <div style=""width:240px; margin: auto;"">
                                <img src=""images/map10_vanimo_scaleRev_orientDef_180.png"" style= ""width:200px""alt=""img"">
                            </div>
                        </div>",0.775,"",0,"",NA,"","images/map10_vanimo_scaleRev_orientDef_180.png","angry",1,10,10,"vanimo","orientDef","scaleRev","180",NA,NA
"","","","","","html-slider-response",99,3470297,"0.0-91.0","bxkkbe1j35",31,NA,"<div style=""width:500px;"">
                            <p style=""font-size:50px; font-weight:bold;""
                            >angry</p>
                            <div style=""width:240px; margin: auto;"">
                                <img src=""images/map15_YlOrBr_scaleDef_orientMir_090.png"" style= ""width:200px""alt=""img"">
                            </div>
                        </div>",0.3875,"",0,"",NA,"","images/map15_YlOrBr_scaleDef_orientMir_090.png","angry",1,15,15,"YlOrBr","orientMir","scaleDef","090",NA,NA
"","","","","","html-slider-response",100,3471481,"0.0-92.0","bxkkbe1j35",31,NA,"<div style=""width:500px;"">
                            <p style=""font-size:50px; font-weight:bold;""
                            >angry</p>
                            <div style=""width:240px; margin: auto;"">
                                <img src=""images/map13_cividis_scaleRev_orientDef_000.png"" style= ""width:200px""alt=""img"">
                            </div>
                        </div>",0.66,"",0,"",NA,"","images/map13_cividis_scaleRev_orientDef_000.png","angry",1,13,13,"cividis","orientDef","scaleRev","000",NA,NA
"","","","","","html-slider-response",101,3474281,"0.0-93.0","bxkkbe1j35",31,NA,"<div style=""width:500px;"">
                            <p style=""font-size:50px; font-weight:bold;""
                            >angry</p>
                            <div style=""width:240px; margin: auto;"">
                                <img src=""images/map12_cividis_scaleDef_orientMir_270.png"" style= ""width:200px""alt=""img"">
                            </div>
                        </div>",0.625,"",0,"",NA,"","images/map12_cividis_scaleDef_orientMir_270.png","angry",1,12,12,"cividis","orientMir","scaleDef","270",NA,NA
"","","","","","html-slider-response",102,3477215,"0.0-94.0","bxkkbe1j35",31,NA,"<div style=""width:500px;"">
                            <p style=""font-size:50px; font-weight:bold;""
                            >angry</p>
                            <div style=""width:240px; margin: auto;"">
                                <img src=""images/map02_BrBG_scaleDef_orientDef_090.png"" style= ""width:200px""alt=""img"">
                            </div>
                        </div>",0.625,"",0,"",NA,"","images/map02_BrBG_scaleDef_orientDef_090.png","angry",1,2,2,"BrBG","orientDef","scaleDef","090",NA,NA
"","","","","","html-button-response",103,3479020,"0.0-95.0","bxkkbe1j35",31,1304,"<p>Great Job! You've finished block 1.<br></br> You have 4 block(s) left to go.<br></br></p>",0.5,"",NA,"",NA,"","","",NA,NA,NA,"","","","",NA,NA
"","","","","","html-button-response",104,3480853,"0.0-96.0","bxkkbe1j35",31,1831,"<p>In this block of trials, you will be asked to rate how much you associate each map with:</p > <p style = 'font-size:150%; font-weight: bold'>fearful</p><br></br>",0.5,"",NA,"",NA,"","","",NA,NA,NA,"","","","",NA,NA
"","","","","","html-slider-response",105,3482931,"0.0-97.0","bxkkbe1j35",31,NA,"<div style=""width:500px;"">
                            <p style=""font-size:50px; font-weight:bold;""
                            >fearful</p>
                            <div style=""width:240px; margin: auto;"">
                                <img src=""images/map26_GnBu_scaleRev_orientDef_180.png"" style= ""width:200px""alt=""img"">
                            </div>
                        </div>",0.7,"",0,"",NA,"","images/map26_GnBu_scaleRev_orientDef_180.png","fearful",1,26,26,"GnBu","orientDef","scaleRev","180",NA,NA
"","","","","","html-slider-response",106,3484214,"0.0-98.0","bxkkbe1j35",31,NA,"<div style=""width:500px;"">
                            <p style=""font-size:50px; font-weight:bold;""
                            >fearful</p>
                            <div style=""width:240px; margin: auto;"">
                                <img src=""images/map02_RdBu_scaleDef_orientMir_270.png"" style= ""width:200px""alt=""img"">
                            </div>
                        </div>",0.7,"",0,"",NA,"","images/map02_RdBu_scaleDef_orientMir_270.png","fearful",1,2,2,"RdBu","orientMir","scaleDef","270",NA,NA
"","","","","","html-slider-response",107,3485779,"0.0-99.0","bxkkbe1j35",31,NA,"<div style=""width:500px;"">
                            <p style=""font-size:50px; font-weight:bold;""
                            >fearful</p>
                            <div style=""width:240px; margin: auto;"">
                                <img src=""images/map27_YlGn_scaleDef_orientDef_270.png"" style= ""width:200px""alt=""img"">
                            </div>
                        </div>",0.415,"",0,"",NA,"","images/map27_YlGn_scaleDef_orientDef_270.png","fearful",1,27,27,"YlGn","orientDef","scaleDef","270",NA,NA
"","","","","","html-slider-response",108,3487613,"0.0-100.0","bxkkbe1j35",31,NA,"<div style=""width:500px;"">
                            <p style=""font-size:50px; font-weight:bold;""
                            >fearful</p>
                            <div style=""width:240px; margin: auto;"">
                                <img src=""images/map23_BuPu_scaleDef_orientMir_270.png"" style= ""width:200px""alt=""img"">
                            </div>
                        </div>",0.7,"",0,"",NA,"","images/map23_BuPu_scaleDef_orientMir_270.png","fearful",1,23,23,"BuPu","orientMir","scaleDef","270",NA,NA
"","","","","","html-slider-response",109,3488964,"0.0-101.0","bxkkbe1j35",31,NA,"<div style=""width:500px;"">
                            <p style=""font-size:50px; font-weight:bold;""
                            >fearful</p>
                            <div style=""width:240px; margin: auto;"">
                                <img src=""images/map05_coolwarm_scaleDef_orientMir_270.png"" style= ""width:200px""alt=""img"">
                            </div>
                        </div>",0.345,"",0,"",NA,"","images/map05_coolwarm_scaleDef_orientMir_270.png","fearful",1,5,5,"coolwarm","orientMir","scaleDef","270",NA,NA
"","","","","","html-slider-response",110,3490264,"0.0-102.0","bxkkbe1j35",31,NA,"<div style=""width:500px;"">
                            <p style=""font-size:50px; font-weight:bold;""
                            >fearful</p>
                            <div style=""width:240px; margin: auto;"">
                                <img src=""images/map27_PiYG_scaleDef_orientMir_090.png"" style= ""width:200px""alt=""img"">
                            </div>
                        </div>",0.38,"",0,"",NA,"","images/map27_PiYG_scaleDef_orientMir_090.png","fearful",1,27,27,"PiYG","orientMir","scaleDef","090",NA,NA
"","","","","","html-slider-response",111,3491963,"0.0-103.0","bxkkbe1j35",31,NA,"<div style=""width:500px;"">
                            <p style=""font-size:50px; font-weight:bold;""
                            >fearful</p>
                            <div style=""width:240px; margin: auto;"">
                                <img src=""images/map07_berlin_scaleRev_orientMir_180.png"" style= ""width:200px""alt=""img"">
                            </div>
                        </div>",0.5825,"",0,"",NA,"","images/map07_berlin_scaleRev_orientMir_180.png","fearful",1,7,7,"berlin","orientMir","scaleRev","180",NA,NA
"","","","","","html-slider-response",112,3493730,"0.0-104.0","bxkkbe1j35",31,NA,"<div style=""width:500px;"">
                            <p style=""font-size:50px; font-weight:bold;""
                            >fearful</p>
                            <div style=""width:240px; margin: auto;"">
                                <img src=""images/map10_turbo_scaleRev_orientMir_180.png"" style= ""width:200px""alt=""img"">
                            </div>
                        </div>",0.6925,"",0,"",NA,"","images/map10_turbo_scaleRev_orientMir_180.png","fearful",1,10,10,"turbo","orientMir","scaleRev","180",NA,NA
"","","","","","html-slider-response",113,3495664,"0.0-105.0","bxkkbe1j35",31,NA,"<div style=""width:500px;"">
                            <p style=""font-size:50px; font-weight:bold;""
                            >fearful</p>
                            <div style=""width:240px; margin: auto;"">
                                <img src=""images/map07_bwr_scaleRev_orientDef_180.png"" style= ""width:200px""alt=""img"">
                            </div>
                        </div>",0.3825,"",0,"",NA,"","images/map07_bwr_scaleRev_orientDef_180.png","fearful",1,7,7,"bwr","orientDef","scaleRev","180",NA,NA
"","","","","","html-slider-response",114,3497680,"0.0-106.0","bxkkbe1j35",31,NA,"<div style=""width:500px;"">
                            <p style=""font-size:50px; font-weight:bold;""
                            >fearful</p>
                            <div style=""width:240px; margin: auto;"">
                                <img src=""images/map13_Greys_scaleRev_orientDef_180.png"" style= ""width:200px""alt=""img"">
                            </div>
                        </div>",0.725,"",0,"",NA,"","images/map13_Greys_scaleRev_orientDef_180.png","fearful",1,13,13,"Greys","orientDef","scaleRev","180",NA,NA
"","","","","","html-slider-response",115,3498847,"0.0-107.0","bxkkbe1j35",31,NA,"<div style=""width:500px;"">
                            <p style=""font-size:50px; font-weight:bold;""
                            >fearful</p>
                            <div style=""width:240px; margin: auto;"">
                                <img src=""images/map12_cividis_scaleDef_orientMir_270.png"" style= ""width:200px""alt=""img"">
                            </div>
                        </div>",0.48,"",0,"",NA,"","images/map12_cividis_scaleDef_orientMir_270.png","fearful",1,12,12,"cividis","orientMir","scaleDef","270",NA,NA
"","","","","","html-slider-response",116,3499730,"0.0-108.0","bxkkbe1j35",31,NA,"<div style=""width:500px;"">
                            <p style=""font-size:50px; font-weight:bold;""
                            >fearful</p>
                            <div style=""width:240px; margin: auto;"">
                                <img src=""images/map02_BrBG_scaleDef_orientDef_090.png"" style= ""width:200px""alt=""img"">
                            </div>
                        </div>",0.585,"",0,"",NA,"","images/map02_BrBG_scaleDef_orientDef_090.png","fearful",1,2,2,"BrBG","orientDef","scaleDef","090",NA,NA
"","","","","","html-slider-response",117,3500930,"0.0-109.0","bxkkbe1j35",31,NA,"<div style=""width:500px;"">
                            <p style=""font-size:50px; font-weight:bold;""
                            >fearful</p>
                            <div style=""width:240px; margin: auto;"">
                                <img src=""images/map10_viridis_scaleDef_orientMir_270.png"" style= ""width:200px""alt=""img"">
                            </div>
                        </div>",0.61,"",0,"",NA,"","images/map10_viridis_scaleDef_orientMir_270.png","fearful",1,10,10,"viridis","orientMir","scaleDef","270",NA,NA
"","","","","","html-slider-response",118,3501880,"0.0-110.0","bxkkbe1j35",31,NA,"<div style=""width:500px;"">
                            <p style=""font-size:50px; font-weight:bold;""
                            >fearful</p>
                            <div style=""width:240px; margin: auto;"">
                                <img src=""images/map13_cividis_scaleRev_orientDef_000.png"" style= ""width:200px""alt=""img"">
                            </div>
                        </div>",0.375,"",0,"",NA,"","images/map13_cividis_scaleRev_orientDef_000.png","fearful",1,13,13,"cividis","orientDef","scaleRev","000",NA,NA
"","","","","","html-slider-response",119,3503012,"0.0-111.0","bxkkbe1j35",31,NA,"<div style=""width:500px;"">
                            <p style=""font-size:50px; font-weight:bold;""
                            >fearful</p>
                            <div style=""width:240px; margin: auto;"">
                                <img src=""images/map26_PuBuGn_scaleDef_orientMir_270.png"" style= ""width:200px""alt=""img"">
                            </div>
                        </div>",0.6225,"",0,"",NA,"","images/map26_PuBuGn_scaleDef_orientMir_270.png","fearful",1,26,26,"PuBuGn","orientMir","scaleDef","270",NA,NA
"","","","","","html-slider-response",120,3503947,"0.0-112.0","bxkkbe1j35",31,NA,"<div style=""width:500px;"">
                            <p style=""font-size:50px; font-weight:bold;""
                            >fearful</p>
                            <div style=""width:240px; margin: auto;"">
                                <img src=""images/map02_RdGy_scaleDef_orientMir_090.png"" style= ""width:200px""alt=""img"">
                            </div>
                        </div>",0.68,"",0,"",NA,"","images/map02_RdGy_scaleDef_orientMir_090.png","fearful",1,2,2,"RdGy","orientMir","scaleDef","090",NA,NA
"","","","","","html-slider-response",121,3505530,"0.0-113.0","bxkkbe1j35",31,NA,"<div style=""width:500px;"">
                            <p style=""font-size:50px; font-weight:bold;""
                            >fearful</p>
                            <div style=""width:240px; margin: auto;"">
                                <img src=""images/map15_Reds_scaleDef_orientDef_270.png"" style= ""width:200px""alt=""img"">
                            </div>
                        </div>",0.2825,"",0,"",NA,"","images/map15_Reds_scaleDef_orientDef_270.png","fearful",1,15,15,"Reds","orientDef","scaleDef","270",NA,NA
"","","","","","html-slider-response",122,3507097,"0.0-114.0","bxkkbe1j35",31,NA,"<div style=""width:500px;"">
                            <p style=""font-size:50px; font-weight:bold;""
                            >fearful</p>
                            <div style=""width:240px; margin: auto;"">
                                <img src=""images/map27_PiYG_scaleRev_orientMir_180.png"" style= ""width:200px""alt=""img"">
                            </div>
                        </div>",0.705,"",0,"",NA,"","images/map27_PiYG_scaleRev_orientMir_180.png","fearful",1,27,27,"PiYG","orientMir","scaleRev","180",NA,NA
"","","","","","html-slider-response",123,3509614,"0.0-115.0","bxkkbe1j35",31,NA,"<div style=""width:500px;"">
                            <p style=""font-size:50px; font-weight:bold;""
                            >fearful</p>
                            <div style=""width:240px; margin: auto;"">
                                <img src=""images/map05_RdBu_scaleRev_orientDef_000.png"" style= ""width:200px""alt=""img"">
                            </div>
                        </div>",0.7475,"",0,"",NA,"","images/map05_RdBu_scaleRev_orientDef_000.png","fearful",1,5,5,"RdBu","orientDef","scaleRev","000",NA,NA
"","","","","","html-slider-response",124,3511263,"0.0-116.0","bxkkbe1j35",31,NA,"<div style=""width:500px;"">
                            <p style=""font-size:50px; font-weight:bold;""
                            >fearful</p>
                            <div style=""width:240px; margin: auto;"">
                                <img src=""images/map05_RdYlGn_scaleDef_orientDef_270.png"" style= ""width:200px""alt=""img"">
                            </div>
                        </div>",0.3675,"",0,"",NA,"","images/map05_RdYlGn_scaleDef_orientDef_270.png","fearful",1,5,5,"RdYlGn","orientDef","scaleDef","270",NA,NA
"","","","","","html-slider-response",125,3512632,"0.0-117.0","bxkkbe1j35",31,NA,"<div style=""width:500px;"">
                            <p style=""font-size:50px; font-weight:bold;""
                            >fearful</p>
                            <div style=""width:240px; margin: auto;"">
                                <img src=""images/map13_Greens_scaleDef_orientMir_270.png"" style= ""width:200px""alt=""img"">
                            </div>
                        </div>",0.3675,"",0,"",NA,"","images/map13_Greens_scaleDef_orientMir_270.png","fearful",1,13,13,"Greens","orientMir","scaleDef","270",NA,NA
"","","","","","html-slider-response",126,3513630,"0.0-118.0","bxkkbe1j35",31,NA,"<div style=""width:500px;"">
                            <p style=""font-size:50px; font-weight:bold;""
                            >fearful</p>
                            <div style=""width:240px; margin: auto;"">
                                <img src=""images/map15_Greens_scaleRev_orientDef_000.png"" style= ""width:200px""alt=""img"">
                            </div>
                        </div>",0.615,"",0,"",NA,"","images/map15_Greens_scaleRev_orientDef_000.png","fearful",1,15,15,"Greens","orientDef","scaleRev","000",NA,NA
"","","","","","html-slider-response",127,3514630,"0.0-119.0","bxkkbe1j35",31,NA,"<div style=""width:500px;"">
                            <p style=""font-size:50px; font-weight:bold;""
                            >fearful</p>
                            <div style=""width:240px; margin: auto;"">
                                <img src=""images/map23_RdPu_scaleRev_orientMir_180.png"" style= ""width:200px""alt=""img"">
                            </div>
                        </div>",0.63,"",0,"",NA,"","images/map23_RdPu_scaleRev_orientMir_180.png","fearful",1,23,23,"RdPu","orientMir","scaleRev","180",NA,NA
"","","","","","html-slider-response",128,3515629,"0.0-120.0","bxkkbe1j35",31,NA,"<div style=""width:500px;"">
                            <p style=""font-size:50px; font-weight:bold;""
                            >fearful</p>
                            <div style=""width:240px; margin: auto;"">
                                <img src=""images/map12_inferno_scaleDef_orientDef_270.png"" style= ""width:200px""alt=""img"">
                            </div>
                        </div>",0.65,"",0,"",NA,"","images/map12_inferno_scaleDef_orientDef_270.png","fearful",1,12,12,"inferno","orientDef","scaleDef","270",NA,NA
"","","","","","html-slider-response",129,3516880,"0.0-121.0","bxkkbe1j35",31,NA,"<div style=""width:500px;"">
                            <p style=""font-size:50px; font-weight:bold;""
                            >fearful</p>
                            <div style=""width:240px; margin: auto;"">
                                <img src=""images/map13_Purples_scaleDef_orientDef_270.png"" style= ""width:200px""alt=""img"">
                            </div>
                        </div>",0.27,"",0,"",NA,"","images/map13_Purples_scaleDef_orientDef_270.png","fearful",1,13,13,"Purples","orientDef","scaleDef","270",NA,NA
"","","","","","html-slider-response",130,3519396,"0.0-122.0","bxkkbe1j35",31,NA,"<div style=""width:500px;"">
                            <p style=""font-size:50px; font-weight:bold;""
                            >fearful</p>
                            <div style=""width:240px; margin: auto;"">
                                <img src=""images/map07_berlin_scaleDef_orientMir_090.png"" style= ""width:200px""alt=""img"">
                            </div>
                        </div>",0.65,"",0,"",NA,"","images/map07_berlin_scaleDef_orientMir_090.png","fearful",1,7,7,"berlin","orientMir","scaleDef","090",NA,NA
"","","","","","html-slider-response",131,3520347,"0.0-123.0","bxkkbe1j35",31,NA,"<div style=""width:500px;"">
                            <p style=""font-size:50px; font-weight:bold;""
                            >fearful</p>
                            <div style=""width:240px; margin: auto;"">
                                <img src=""images/map10_gist_earth_scaleRev_orientMir_000.png"" style= ""width:200px""alt=""img"">
                            </div>
                        </div>",0.27,"",0,"",NA,"","images/map10_gist_earth_scaleRev_orientMir_000.png","fearful",1,10,10,"gist","scaleRev","earth","orientMir",NA,NA
"","","","","","html-slider-response",132,3521529,"0.0-124.0","bxkkbe1j35",31,NA,"<div style=""width:500px;"">
                            <p style=""font-size:50px; font-weight:bold;""
                            >fearful</p>
                            <div style=""width:240px; margin: auto;"">
                                <img src=""images/map10_gist_earth_scaleDef_orientDef_270.png"" style= ""width:200px""alt=""img"">
                            </div>
                        </div>",0.715,"",0,"",NA,"","images/map10_gist_earth_scaleDef_orientDef_270.png","fearful",1,10,10,"gist","scaleDef","earth","orientDef",NA,NA
"","","","","","html-slider-response",133,3522447,"0.0-125.0","bxkkbe1j35",31,NA,"<div style=""width:500px;"">
                            <p style=""font-size:50px; font-weight:bold;""
                            >fearful</p>
                            <div style=""width:240px; margin: auto;"">
                                <img src=""images/map12_inferno_scaleRev_orientMir_000.png"" style= ""width:200px""alt=""img"">
                            </div>
                        </div>",0.745,"",0,"",NA,"","images/map12_inferno_scaleRev_orientMir_000.png","fearful",1,12,12,"inferno","orientMir","scaleRev","000",NA,NA
"","","","","","html-slider-response",134,3523580,"0.0-126.0","bxkkbe1j35",31,NA,"<div style=""width:500px;"">
                            <p style=""font-size:50px; font-weight:bold;""
                            >fearful</p>
                            <div style=""width:240px; margin: auto;"">
                                <img src=""images/map07_seismic_scaleRev_orientMir_000.png"" style= ""width:200px""alt=""img"">
                            </div>
                        </div>",0.625,"",0,"",NA,"","images/map07_seismic_scaleRev_orientMir_000.png","fearful",1,7,7,"seismic","orientMir","scaleRev","000",NA,NA
"","","","","","html-slider-response",135,3524413,"0.0-127.0","bxkkbe1j35",31,NA,"<div style=""width:500px;"">
                            <p style=""font-size:50px; font-weight:bold;""
                            >fearful</p>
                            <div style=""width:240px; margin: auto;"">
                                <img src=""images/map12_plasma_scaleRev_orientDef_180.png"" style= ""width:200px""alt=""img"">
                            </div>
                        </div>",0.47,"",0,"",NA,"","images/map12_plasma_scaleRev_orientDef_180.png","fearful",1,12,12,"plasma","orientDef","scaleRev","180",NA,NA
"","","","","","html-slider-response",136,3525813,"0.0-128.0","bxkkbe1j35",31,NA,"<div style=""width:500px;"">
                            <p style=""font-size:50px; font-weight:bold;""
                            >fearful</p>
                            <div style=""width:240px; margin: auto;"">
                                <img src=""images/map05_Spectral_scaleRev_orientMir_180.png"" style= ""width:200px""alt=""img"">
                            </div>
                        </div>",0.4125,"",0,"",NA,"","images/map05_Spectral_scaleRev_orientMir_180.png","fearful",1,5,5,"Spectral","orientMir","scaleRev","180",NA,NA
"","","","","","html-slider-response",137,3527780,"0.0-129.0","bxkkbe1j35",31,NA,"<div style=""width:500px;"">
                            <p style=""font-size:50px; font-weight:bold;""
                            >fearful</p>
                            <div style=""width:240px; margin: auto;"">
                                <img src=""images/map05_Spectral_scaleDef_orientMir_090.png"" style= ""width:200px""alt=""img"">
                            </div>
                        </div>",0.4575,"",0,"",NA,"","images/map05_Spectral_scaleDef_orientMir_090.png","fearful",1,5,5,"Spectral","orientMir","scaleDef","090",NA,NA
"","","","","","html-slider-response",138,3529515,"0.0-130.0","bxkkbe1j35",31,NA,"<div style=""width:500px;"">
                            <p style=""font-size:50px; font-weight:bold;""
                            >fearful</p>
                            <div style=""width:240px; margin: auto;"">
                                <img src=""images/map07_coolwarm_scaleRev_orientDef_000.png"" style= ""width:200px""alt=""img"">
                            </div>
                        </div>",0.565,"",0,"",NA,"","images/map07_coolwarm_scaleRev_orientDef_000.png","fearful",1,7,7,"coolwarm","orientDef","scaleRev","000",NA,NA
"","","","","","html-slider-response",139,3530813,"0.0-131.0","bxkkbe1j35",31,NA,"<div style=""width:500px;"">
                            <p style=""font-size:50px; font-weight:bold;""
                            >fearful</p>
                            <div style=""width:240px; margin: auto;"">
                                <img src=""images/map12_viridis_scaleRev_orientDef_000.png"" style= ""width:200px""alt=""img"">
                            </div>
                        </div>",0.565,"",0,"",NA,"","images/map12_viridis_scaleRev_orientDef_000.png","fearful",1,12,12,"viridis","orientDef","scaleRev","000",NA,NA
"","","","","","html-slider-response",140,3532263,"0.0-132.0","bxkkbe1j35",31,NA,"<div style=""width:500px;"">
                            <p style=""font-size:50px; font-weight:bold;""
                            >fearful</p>
                            <div style=""width:240px; margin: auto;"">
                                <img src=""images/map05_RdYlBu_scaleDef_orientDef_090.png"" style= ""width:200px""alt=""img"">
                            </div>
                        </div>",0.565,"",0,"",NA,"","images/map05_RdYlBu_scaleDef_orientDef_090.png","fearful",1,5,5,"RdYlBu","orientDef","scaleDef","090",NA,NA
"","","","","","html-slider-response",141,3534147,"0.0-133.0","bxkkbe1j35",31,NA,"<div style=""width:500px;"">
                            <p style=""font-size:50px; font-weight:bold;""
                            >fearful</p>
                            <div style=""width:240px; margin: auto;"">
                                <img src=""images/map26_PuBu_scaleRev_orientMir_000.png"" style= ""width:200px""alt=""img"">
                            </div>
                        </div>",0.6375,"",0,"",NA,"","images/map26_PuBu_scaleRev_orientMir_000.png","fearful",1,26,26,"PuBu","orientMir","scaleRev","000",NA,NA
"","","","","","html-slider-response",142,3535946,"0.0-134.0","bxkkbe1j35",31,NA,"<div style=""width:500px;"">
                            <p style=""font-size:50px; font-weight:bold;""
                            >fearful</p>
                            <div style=""width:240px; margin: auto;"">
                                <img src=""images/map12_magma_scaleRev_orientMir_180.png"" style= ""width:200px""alt=""img"">
                            </div>
                        </div>",0.375,"",0,"",NA,"","images/map12_magma_scaleRev_orientMir_180.png","fearful",1,12,12,"magma","orientMir","scaleRev","180",NA,NA
"","","","","","html-slider-response",143,3536964,"0.0-135.0","bxkkbe1j35",31,NA,"<div style=""width:500px;"">
                            <p style=""font-size:50px; font-weight:bold;""
                            >fearful</p>
                            <div style=""width:240px; margin: auto;"">
                                <img src=""images/map27_BuGn_scaleRev_orientDef_180.png"" style= ""width:200px""alt=""img"">
                            </div>
                        </div>",0.665,"",0,"",NA,"","images/map27_BuGn_scaleRev_orientDef_180.png","fearful",1,27,27,"BuGn","orientDef","scaleRev","180",NA,NA
"","","","","","html-slider-response",144,3538930,"0.0-136.0","bxkkbe1j35",31,NA,"<div style=""width:500px;"">
                            <p style=""font-size:50px; font-weight:bold;""
                            >fearful</p>
                            <div style=""width:240px; margin: auto;"">
                                <img src=""images/map15_Oranges_scaleDef_orientDef_090.png"" style= ""width:200px""alt=""img"">
                            </div>
                        </div>",0.59,"",0,"",NA,"","images/map15_Oranges_scaleDef_orientDef_090.png","fearful",1,15,15,"Oranges","orientDef","scaleDef","090",NA,NA
"","","","","","html-button-response",145,3541151,"0.0-137.0","bxkkbe1j35",31,1718,"<p>You are doing great!<br></br> You are halway done with the current block. When you are ready to continue, click the 'Continue' button.</p>",0.5,"",NA,"",NA,"","","",NA,NA,NA,"","","","",NA,NA
"","","","","","html-slider-response",146,3544412,"0.0-138.0","bxkkbe1j35",31,NA,"<div style=""width:500px;"">
                            <p style=""font-size:50px; font-weight:bold;""
                            >fearful</p>
                            <div style=""width:240px; margin: auto;"">
                                <img src=""images/map27_PRGn_scaleDef_orientMir_270.png"" style= ""width:200px""alt=""img"">
                            </div>
                        </div>",0.75,"",0,"",NA,"","images/map27_PRGn_scaleDef_orientMir_270.png","fearful",1,27,27,"PRGn","orientMir","scaleDef","270",NA,NA
"","","","","","html-slider-response",147,3546515,"0.0-139.0","bxkkbe1j35",31,NA,"<div style=""width:500px;"">
                            <p style=""font-size:50px; font-weight:bold;""
                            >fearful</p>
                            <div style=""width:240px; margin: auto;"">
                                <img src=""images/map26_BuPu_scaleRev_orientDef_000.png"" style= ""width:200px""alt=""img"">
                            </div>
                        </div>",0.75,"",0,"",NA,"","images/map26_BuPu_scaleRev_orientDef_000.png","fearful",1,26,26,"BuPu","orientDef","scaleRev","000",NA,NA
"","","","","","html-slider-response",148,3549612,"0.0-140.0","bxkkbe1j35",31,NA,"<div style=""width:500px;"">
                            <p style=""font-size:50px; font-weight:bold;""
                            >fearful</p>
                            <div style=""width:240px; margin: auto;"">
                                <img src=""images/map15_YlOrBr_scaleRev_orientMir_180.png"" style= ""width:200px""alt=""img"">
                            </div>
                        </div>",0.6475,"",0,"",NA,"","images/map15_YlOrBr_scaleRev_orientMir_180.png","fearful",1,15,15,"YlOrBr","orientMir","scaleRev","180",NA,NA
"","","","","","html-slider-response",149,3551647,"0.0-141.0","bxkkbe1j35",31,NA,"<div style=""width:500px;"">
                            <p style=""font-size:50px; font-weight:bold;""
                            >fearful</p>
                            <div style=""width:240px; margin: auto;"">
                                <img src=""images/map26_YlGnBu_scaleDef_orientMir_090.png"" style= ""width:200px""alt=""img"">
                            </div>
                        </div>",0.43,"",0,"",NA,"","images/map26_YlGnBu_scaleDef_orientMir_090.png","fearful",1,26,26,"YlGnBu","orientMir","scaleDef","090",NA,NA
"","","","","","html-slider-response",150,3556678,"0.0-142.0","bxkkbe1j35",31,NA,"<div style=""width:500px;"">
                            <p style=""font-size:50px; font-weight:bold;""
                            >fearful</p>
                            <div style=""width:240px; margin: auto;"">
                                <img src=""images/map23_OrRd_scaleRev_orientDef_180.png"" style= ""width:200px""alt=""img"">
                            </div>
                        </div>",0.3875,"",0,"",NA,"","images/map23_OrRd_scaleRev_orientDef_180.png","fearful",1,23,23,"OrRd","orientDef","scaleRev","180",NA,NA
"","","","","","html-slider-response",151,3559046,"0.0-143.0","bxkkbe1j35",31,NA,"<div style=""width:500px;"">
                            <p style=""font-size:50px; font-weight:bold;""
                            >fearful</p>
                            <div style=""width:240px; margin: auto;"">
                                <img src=""images/map13_Blues_scaleDef_orientMir_090.png"" style= ""width:200px""alt=""img"">
                            </div>
                        </div>",0.7775,"",0,"",NA,"","images/map13_Blues_scaleDef_orientMir_090.png","fearful",1,13,13,"Blues","orientMir","scaleDef","090",NA,NA
"","","","","","html-slider-response",152,3560513,"0.0-144.0","bxkkbe1j35",31,NA,"<div style=""width:500px;"">
                            <p style=""font-size:50px; font-weight:bold;""
                            >fearful</p>
                            <div style=""width:240px; margin: auto;"">
                                <img src=""images/map27_BuGn_scaleDef_orientDef_090.png"" style= ""width:200px""alt=""img"">
                            </div>
                        </div>",0.715,"",0,"",NA,"","images/map27_BuGn_scaleDef_orientDef_090.png","fearful",1,27,27,"BuGn","orientDef","scaleDef","090",NA,NA
"","","","","","html-slider-response",153,3561997,"0.0-145.0","bxkkbe1j35",31,NA,"<div style=""width:500px;"">
                            <p style=""font-size:50px; font-weight:bold;""
                            >fearful</p>
                            <div style=""width:240px; margin: auto;"">
                                <img src=""images/map26_YlGnBu_scaleRev_orientMir_180.png"" style= ""width:200px""alt=""img"">
                            </div>
                        </div>",0.7475,"",0,"",NA,"","images/map26_YlGnBu_scaleRev_orientMir_180.png","fearful",1,26,26,"YlGnBu","orientMir","scaleRev","180",NA,NA
"","","","","","html-slider-response",154,3563480,"0.0-146.0","bxkkbe1j35",31,NA,"<div style=""width:500px;"">
                            <p style=""font-size:50px; font-weight:bold;""
                            >fearful</p>
                            <div style=""width:240px; margin: auto;"">
                                <img src=""images/map07_managua_scaleDef_orientMir_270.png"" style= ""width:200px""alt=""img"">
                            </div>
                        </div>",0.4025,"",0,"",NA,"","images/map07_managua_scaleDef_orientMir_270.png","fearful",1,7,7,"managua","orientMir","scaleDef","270",NA,NA
"","","","","","html-slider-response",155,3566363,"0.0-147.0","bxkkbe1j35",31,NA,"<div style=""width:500px;"">
                            <p style=""font-size:50px; font-weight:bold;""
                            >fearful</p>
                            <div style=""width:240px; margin: auto;"">
                                <img src=""images/map02_RdGy_scaleRev_orientMir_180.png"" style= ""width:200px""alt=""img"">
                            </div>
                        </div>",0.3525,"",0,"",NA,"","images/map02_RdGy_scaleRev_orientMir_180.png","fearful",1,2,2,"RdGy","orientMir","scaleRev","180",NA,NA
"","","","","","html-slider-response",156,3568747,"0.0-148.0","bxkkbe1j35",31,NA,"<div style=""width:500px;"">
                            <p style=""font-size:50px; font-weight:bold;""
                            >fearful</p>
                            <div style=""width:240px; margin: auto;"">
                                <img src=""images/map10_vanimo_scaleRev_orientDef_180.png"" style= ""width:200px""alt=""img"">
                            </div>
                        </div>",0.26,"",0,"",NA,"","images/map10_vanimo_scaleRev_orientDef_180.png","fearful",1,10,10,"vanimo","orientDef","scaleRev","180",NA,NA
"","","","","","html-slider-response",157,3571812,"0.0-149.0","bxkkbe1j35",31,NA,"<div style=""width:500px;"">
                            <p style=""font-size:50px; font-weight:bold;""
                            >fearful</p>
                            <div style=""width:240px; margin: auto;"">
                                <img src=""images/map23_YlOrRd_scaleRev_orientDef_000.png"" style= ""width:200px""alt=""img"">
                            </div>
                        </div>",0.7825,"",0,"",NA,"","images/map23_YlOrRd_scaleRev_orientDef_000.png","fearful",1,23,23,"YlOrRd","orientDef","scaleRev","000",NA,NA
"","","","","","html-slider-response",158,3573063,"0.0-150.0","bxkkbe1j35",31,NA,"<div style=""width:500px;"">
                            <p style=""font-size:50px; font-weight:bold;""
                            >fearful</p>
                            <div style=""width:240px; margin: auto;"">
                                <img src=""images/map10_managua_scaleRev_orientDef_000.png"" style= ""width:200px""alt=""img"">
                            </div>
                        </div>",0.44,"",0,"",NA,"","images/map10_managua_scaleRev_orientDef_000.png","fearful",1,10,10,"managua","orientDef","scaleRev","000",NA,NA
"","","","","","html-slider-response",159,3574296,"0.0-151.0","bxkkbe1j35",31,NA,"<div style=""width:500px;"">
                            <p style=""font-size:50px; font-weight:bold;""
                            >fearful</p>
                            <div style=""width:240px; margin: auto;"">
                                <img src=""images/map27_PuBuGn_scaleRev_orientDef_000.png"" style= ""width:200px""alt=""img"">
                            </div>
                        </div>",0.6425,"",0,"",NA,"","images/map27_PuBuGn_scaleRev_orientDef_000.png","fearful",1,27,27,"PuBuGn","orientDef","scaleRev","000",NA,NA
"","","","","","html-slider-response",160,3575545,"0.0-152.0","bxkkbe1j35",31,NA,"<div style=""width:500px;"">
                            <p style=""font-size:50px; font-weight:bold;""
                            >fearful</p>
                            <div style=""width:240px; margin: auto;"">
                                <img src=""images/map02_PRGn_scaleRev_orientDef_000.png"" style= ""width:200px""alt=""img"">
                            </div>
                        </div>",0.6525,"",0,"",NA,"","images/map02_PRGn_scaleRev_orientDef_000.png","fearful",1,2,2,"PRGn","orientDef","scaleRev","000",NA,NA
"","","","","","html-slider-response",161,3577246,"0.0-153.0","bxkkbe1j35",31,NA,"<div style=""width:500px;"">
                            <p style=""font-size:50px; font-weight:bold;""
                            >fearful</p>
                            <div style=""width:240px; margin: auto;"">
                                <img src=""images/map23_OrRd_scaleDef_orientDef_090.png"" style= ""width:200px""alt=""img"">
                            </div>
                        </div>",0.7525,"",0,"",NA,"","images/map23_OrRd_scaleDef_orientDef_090.png","fearful",1,23,23,"OrRd","orientDef","scaleDef","090",NA,NA
"","","","","","html-slider-response",162,3579279,"0.0-154.0","bxkkbe1j35",31,NA,"<div style=""width:500px;"">
                            <p style=""font-size:50px; font-weight:bold;""
                            >fearful</p>
                            <div style=""width:240px; margin: auto;"">
                                <img src=""images/map12_plasma_scaleDef_orientDef_090.png"" style= ""width:200px""alt=""img"">
                            </div>
                        </div>",0.705,"",0,"",NA,"","images/map12_plasma_scaleDef_orientDef_090.png","fearful",1,12,12,"plasma","orientDef","scaleDef","090",NA,NA
"","","","","","html-slider-response",163,3580796,"0.0-155.0","bxkkbe1j35",31,NA,"<div style=""width:500px;"">
                            <p style=""font-size:50px; font-weight:bold;""
                            >fearful</p>
                            <div style=""width:240px; margin: auto;"">
                                <img src=""images/map05_RdYlBu_scaleRev_orientDef_180.png"" style= ""width:200px""alt=""img"">
                            </div>
                        </div>",0.685,"",0,"",NA,"","images/map05_RdYlBu_scaleRev_orientDef_180.png","fearful",1,5,5,"RdYlBu","orientDef","scaleRev","180",NA,NA
