"success","timeout","failed_images","failed_audio","failed_video","trial_type","trial_index","time_elapsed","internal_node_id","subject_id","condition_num","rt","stimulus","response","question_order","slider_start","practiceTrial","practiceTrialNum","correct","image_path","concept","repetition","map_id","map_num","scale_name","orientation_code","mapping_code","rotation_code","ishihara_plate","correct_response"
"true","false","[]","[]","[]","preload",0,7443,"0.0-0.0","rol1bo6dju",79,NA,"",NA,"",NA,"",NA,"","","",NA,NA,NA,"","","","",NA,NA
"","","","","","html-button-response",1,23163,"0.0-1.0","rol1bo6dju",79,15720,"Welcome to our experiment!<p>At the bottom of this screen, you will see a button that says ""Begin Experiment"".<br>Please only click that button when you are ready to complete the 30 minute experiment in one sitting.</p><p> Once you click that button, it will not be possible to restart the experiment.",0.5,"",NA,"",NA,"","","",NA,NA,NA,"","","","",NA,NA
"true","","","","","fullscreen",2,25206,"0.0-2.0","rol1bo6dju",79,1028,"",NA,"",NA,"",NA,"","","",NA,NA,NA,"","","","",NA,NA
"","","","","","survey-multi-select",3,30598,"0.0-3.0","rol1bo6dju",79,5387,"",NA,"[0]",NA,"",NA,"","","",NA,NA,NA,"","","","",NA,NA
"","","","","","html-button-response",4,31537,"0.0-4.0","rol1bo6dju",79,937,"Welcome! <p> This experiment involves two parts: demographic information, followed by the experimental task.<p> It will take about 30 minutes to complete both parts.",0.5,"",NA,"",NA,"","","",NA,NA,NA,"","","","",NA,NA
"","","","","","survey-text",5,43750,"0.0-5.0","rol1bo6dju",79,12195,"",NA,"",NA,"",NA,"","","",NA,NA,NA,"","","","",NA,NA
"","","","","","html-slider-response",6,70133,"0.0-6.0","rol1bo6dju",79,26379,"<div style='text-align:left; font-size:20px; line-height:25px; width: 1000px;'>
                                During this experiment you will be asked to rate how much you associate maps with                    different concepts.<br> Below, you can see some examples of the maps you will be asked to rate. Above the maps
                    is the list of concepts.<br>You will be asked                    to rate how much you associate each map with each concept on a scale from 'not at all' to 'very much' like the
                    one below. <br><br>
                    Now, please look at the list of concepts and maps. For each concept, think about the map you associate 'very
                    much' with the concept.<br>                     When you see that map during the experiment, please rate it near the 'very much' endpoint of the
                    scale.<br>Now, please think about which map you associate 'not at all'                     with each concept. When you see that map during the experiment, please rate it near the 'not at all' endpoint
                    of the scale.<br>
                    Please use the full range of the scale. That is, if a map is somewhat associated with the concept, you would
                    click partway between the middle point and right side of the scale.                    You will be asked to rate each map for a given concept before moving on to the next concept.<br>Press the
                    'Continue' button for instructions on how to use the slider.                    <br>
                </div>

                <div style=""width: 500px; margin: 0 auto;"">
                    <!-- Centered text paragraphs -->
                    <div style=""text-align: center; width: 500px;"">
                        <p style=""font-size:25px; line-height:15px;"">
                            sad&nbsp;&nbsp;&nbsp;&nbsp;
                            fearful&nbsp;&nbsp;&nbsp;&nbsp;
                            happy&nbsp;&nbsp;&nbsp;&nbsp;
                            angry&nbsp;&nbsp;&nbsp;&nbsp;
                            disgust
                        </p>
                        <!-- <p style=""font-size:20px; line-height:15px;"">fearful</p>
                        <p style=""font-size:20px;line-height:15px;"">happy</p>
                        <p style=""font-size:20px;line-height:15px;"">angry</p>
                        <p style=""font-size:20px;line-height:15px;"">disgust</p> -->
                    </div>
            

                    <!-- Grid section -->
                   <div style=""display: flex; justify-content: center; padding-top: 15px;"">
                    <div style=""display: grid; grid-template-columns: repeat(10, 55px); grid-gap: 5px; width: auto;"">
                        <img src=""images/map23_RdYlGn_scaleDef_orientDef_270.png"" alt=""map"" style=""width: 100%;""><img src=""images/map15_RdBu_scaleDef_orientMir_270.png"" alt=""map"" style=""width: 100%;""><img src=""images/map10_PuRd_scaleDef_orientDef_270.png"" alt=""map"" style=""width: 100%;""><img src=""images/map12_PuBuGn_scaleDef_orientMir_270.png"" alt=""map"" style=""width: 100%;""><img src=""images/map05_Greys_scaleDef_orientDef_090.png"" alt=""map"" style=""width: 100%;""><img src=""images/map15_RdGy_scaleRev_orientMir_180.png"" alt=""map"" style=""width: 100%;""><img src=""images/map12_YlGnBu_scaleDef_orientMir_090.png"" alt=""map"" style=""width: 100%;""><img src=""images/map13_PiYG_scaleRev_orientMir_180.png"" alt=""map"" style=""width: 100%;""><img src=""images/map10_OrRd_scaleDef_orientDef_090.png"" alt=""map"" style=""width: 100%;""><img src=""images/map27_managua_scaleRev_orientDef_000.png"" alt=""map"" style=""width: 100%;""><img src=""images/map13_BuGn_scaleDef_orientDef_090.png"" alt=""map"" style=""width: 100%;""><img src=""images/map05_Purples_scaleDef_orientDef_270.png"" alt=""map"" style=""width: 100%;""><img src=""images/map07_Greens_scaleRev_orientDef_000.png"" alt=""map"" style=""width: 100%;""><img src=""images/map07_YlOrBr_scaleRev_orientMir_180.png"" alt=""map"" style=""width: 100%;""><img src=""images/map23_RdYlBu_scaleRev_orientDef_180.png"" alt=""map"" style=""width: 100%;""><img src=""images/map02_viridis_scaleRev_orientDef_000.png"" alt=""map"" style=""width: 100%;""><img src=""images/map12_GnBu_scaleRev_orientDef_180.png"" alt=""map"" style=""width: 100%;""><img src=""images/map13_YlGn_scaleRev_orientMir_000.png"" alt=""map"" style=""width: 100%;""><img src=""images/map10_BuPu_scaleDef_orientMir_270.png"" alt=""map"" style=""width: 100%;""><img src=""images/map07_YlOrRd_scaleDef_orientMir_270.png"" alt=""map"" style=""width: 100%;""><img src=""images/map02_plasma_scaleRev_orientDef_180.png"" alt=""map"" style=""width: 100%;""><img src=""images/map15_PRGn_scaleRev_orientDef_000.png"" alt=""map"" style=""width: 100%;""><img src=""images/map07_Reds_scaleDef_orientDef_270.png"" alt=""map"" style=""width: 100%;""><img src=""images/map26_berlin_scaleRev_orientMir_180.png"" alt=""map"" style=""width: 100%;""><img src=""images/map02_magma_scaleDef_orientMir_090.png"" alt=""map"" style=""width: 100%;""><img src=""images/map26_seismic_scaleRev_orientMir_000.png"" alt=""map"" style=""width: 100%;""><img src=""images/map02_cividis_scaleDef_orientMir_270.png"" alt=""map"" style=""width: 100%;""><img src=""images/map27_gist_earth_scaleRev_orientMir_000.png"" alt=""map"" style=""width: 100%;""><img src=""images/map12_PuBu_scaleRev_orientMir_000.png"" alt=""map"" style=""width: 100%;""><img src=""images/map15_PuOr_scaleDef_orientDef_270.png"" alt=""map"" style=""width: 100%;""><img src=""images/map26_bwr_scaleRev_orientDef_180.png"" alt=""map"" style=""width: 100%;""><img src=""images/map27_turbo_scaleDef_orientMir_090.png"" alt=""map"" style=""width: 100%;""><img src=""images/map05_Blues_scaleRev_orientMir_180.png"" alt=""map"" style=""width: 100%;""><img src=""images/map23_coolwarm_scaleDef_orientMir_270.png"" alt=""map"" style=""width: 100%;""><img src=""images/map27_vanimo_scaleDef_orientDef_090.png"" alt=""map"" style=""width: 100%;""><img src=""images/map23_Spectral_scaleRev_orientMir_180.png"" alt=""map"" style=""width: 100%;""><img src=""images/map07_Oranges_scaleRev_orientDef_180.png"" alt=""map"" style=""width: 100%;""><img src=""images/map10_RdPu_scaleDef_orientMir_090.png"" alt=""map"" style=""width: 100%;""><img src=""images/map15_BrBG_scaleDef_orientDef_090.png"" alt=""map"" style=""width: 100%;""><img src=""images/map02_inferno_scaleDef_orientDef_270.png"" alt=""map"" style=""width: 100%;"">
                    </div>
                </div>

                    <!-- Clear floats -->
                    <div style=""clear: both;""></div>
                </div>
                            ",0.5025,"",0,"true",NA,"","","",NA,NA,NA,"","","","",NA,NA
"","","","","","html-button-response",7,71316,"0.0-7.0","rol1bo6dju",79,1182,"<div style=""width:800px;""><p style=""text-align:left"">To move the slider, click and drag your cursor to the location of the scale where you would like to make your rating and then let go. When you let go of the slider, your response will be recorded and the next trial will begin. <br>
                    We are interested in your initial impressions of each map for the given concept, so please go with your first intuition. <br>
                    Before you begin the experiment, there will be four training trials for you to practice using the scale. <br>
                     When you are ready to start the training trials, please click ""Continue"".</p><br></div>",0.5,"",NA,"",NA,"","","",NA,NA,NA,"","","","",NA,NA
"","","","","","html-slider-response",8,73685,"0.0-8.0-0.0","rol1bo6dju",79,NA,"<div style=""width:500px;"">
                                    <p style=""font-size:25px;"">Please move the slider all the way to the <br> right endpoint of the scale</p>

                                    </div>
                                </div>",1,"",0,"true",0,"true","","",NA,NA,NA,"","","","",NA,NA
"","","","","","html-button-response",9,75382,"0.0-8.0-1.0","rol1bo6dju",79,1186,"<p align='center'><b>Good job!</b> Click on 'Continue' to proceed.</p>",0.5,"",NA,"",NA,"","","",NA,NA,NA,"","","","",NA,NA
"","","","","","html-slider-response",10,78668,"0.0-9.0-0.0","rol1bo6dju",79,NA,"<div style=""width:500px;"">
                                    <p style=""font-size:25px;"">Please move the slider all the way to the <br> left endpoint of the scale</p>

                                    </div>
                                </div>",0,"",0,"true",1,"true","","",NA,NA,NA,"","","","",NA,NA
"","","","","","html-button-response",11,80231,"0.0-9.0-1.0","rol1bo6dju",79,1055,"<p align='center'><b>Good job!</b> Click on 'Continue' to proceed.</p>",0.5,"",NA,"",NA,"","","",NA,NA,NA,"","","","",NA,NA
"","","","","","html-slider-response",12,84401,"0.0-10.0-0.0","rol1bo6dju",79,NA,"<div style=""width:500px;"">
                                    <p style=""font-size:25px;"">Please move the slider halfway between the center and right endpoint of the scale</p>

                                    </div>
                                </div>",0.7525,"",0,"true",2,"true","","",NA,NA,NA,"","","","",NA,NA
"","","","","","html-button-response",13,85864,"0.0-10.0-1.0","rol1bo6dju",79,948,"<p align='center'><b>Good job!</b> Click on 'Continue' to proceed.</p>",0.5,"",NA,"",NA,"","","",NA,NA,NA,"","","","",NA,NA
"","","","","","html-slider-response",14,88046,"0.0-11.0-0.0","rol1bo6dju",79,NA,"<div style=""width:500px;"">
                                    <p style=""font-size:25px;"">Please move the slider halfway between the center and left endpoint of the scale</p>

                                    </div>
                                </div>",0.2275,"",0,"true",3,"true","","",NA,NA,NA,"","","","",NA,NA
"","","","","","html-button-response",15,89359,"0.0-11.0-1.0","rol1bo6dju",79,809,"<p align='center'><b>Good job!</b> Click on 'Continue' to proceed.</p>",0.5,"",NA,"",NA,"","","",NA,NA,NA,"","","","",NA,NA
"","","","","","html-button-response",16,90606,"0.0-12.0","rol1bo6dju",79,1247,"<p>Great job! You've completed the practice trials. Now you will begin the main task.</p>",0.5,"",NA,"",NA,"","","",NA,NA,NA,"","","","",NA,NA
"","","","","","html-button-response",17,92527,"0.0-13.0","rol1bo6dju",79,1920,"<p>In this block of trials, you will be asked to rate how much you associate each map with:</p > <p style = 'font-size:150%; font-weight: bold'>sad</p><br></br>",0.5,"",NA,"",NA,"","","",NA,NA,NA,"","","","",NA,NA
"","","","","","html-slider-response",18,98127,"0.0-14.0","rol1bo6dju",79,NA,"<div style=""width:500px;"">
                            <p style=""font-size:50px; font-weight:bold;""
                            >sad</p>
                            <div style=""width:240px; margin: auto;"">
                                <img src=""images/map26_coolwarm_scaleRev_orientDef_000.png"" style= ""width:200px""alt=""img"">
                            </div>
                        </div>",0.175,"",0,"",NA,"","images/map26_coolwarm_scaleRev_orientDef_000.png","sad",1,26,26,"coolwarm","orientDef","scaleRev","000",NA,NA
"","","","","","html-slider-response",19,100634,"0.0-15.0","rol1bo6dju",79,NA,"<div style=""width:500px;"">
                            <p style=""font-size:50px; font-weight:bold;""
                            >sad</p>
                            <div style=""width:240px; margin: auto;"">
                                <img src=""images/map26_berlin_scaleRev_orientMir_180.png"" style= ""width:200px""alt=""img"">
                            </div>
                        </div>",0.165,"",0,"",NA,"","images/map26_berlin_scaleRev_orientMir_180.png","sad",1,26,26,"berlin","orientMir","scaleRev","180",NA,NA
"","","","","","html-slider-response",20,103883,"0.0-16.0","rol1bo6dju",79,NA,"<div style=""width:500px;"">
                            <p style=""font-size:50px; font-weight:bold;""
                            >sad</p>
                            <div style=""width:240px; margin: auto;"">
                                <img src=""images/map13_YlGn_scaleDef_orientDef_270.png"" style= ""width:200px""alt=""img"">
                            </div>
                        </div>",0.8525,"",0,"",NA,"","images/map13_YlGn_scaleDef_orientDef_270.png","sad",1,13,13,"YlGn","orientDef","scaleDef","270",NA,NA
"","","","","","html-slider-response",21,106632,"0.0-17.0","rol1bo6dju",79,NA,"<div style=""width:500px;"">
                            <p style=""font-size:50px; font-weight:bold;""
                            >sad</p>
                            <div style=""width:240px; margin: auto;"">
                                <img src=""images/map02_cividis_scaleDef_orientMir_270.png"" style= ""width:200px""alt=""img"">
                            </div>
                        </div>",0.84,"",0,"",NA,"","images/map02_cividis_scaleDef_orientMir_270.png","sad",1,2,2,"cividis","orientMir","scaleDef","270",NA,NA
"","","","","","html-slider-response",22,111379,"0.0-18.0","rol1bo6dju",79,NA,"<div style=""width:500px;"">
                            <p style=""font-size:50px; font-weight:bold;""
                            >sad</p>
                            <div style=""width:240px; margin: auto;"">
                                <img src=""images/map15_PRGn_scaleRev_orientDef_000.png"" style= ""width:200px""alt=""img"">
                            </div>
                        </div>",0.8525,"",0,"",NA,"","images/map15_PRGn_scaleRev_orientDef_000.png","sad",1,15,15,"PRGn","orientDef","scaleRev","000",NA,NA
"","","","","","html-slider-response",23,118643,"0.0-19.0","rol1bo6dju",79,NA,"<div style=""width:500px;"">
                            <p style=""font-size:50px; font-weight:bold;""
                            >sad</p>
                            <div style=""width:240px; margin: auto;"">
                                <img src=""images/map07_Reds_scaleDef_orientDef_270.png"" style= ""width:200px""alt=""img"">
                            </div>
                        </div>",0.9425,"",0,"",NA,"","images/map07_Reds_scaleDef_orientDef_270.png","sad",1,7,7,"Reds","orientDef","scaleDef","270",NA,NA
"","","","","","html-slider-response",24,121456,"0.0-20.0","rol1bo6dju",79,NA,"<div style=""width:500px;"">
                            <p style=""font-size:50px; font-weight:bold;""
                            >sad</p>
                            <div style=""width:240px; margin: auto;"">
                                <img src=""images/map12_GnBu_scaleDef_orientDef_090.png"" style= ""width:200px""alt=""img"">
                            </div>
                        </div>",0.8525,"",0,"",NA,"","images/map12_GnBu_scaleDef_orientDef_090.png","sad",1,12,12,"GnBu","orientDef","scaleDef","090",NA,NA
"","","","","","html-slider-response",25,124242,"0.0-21.0","rol1bo6dju",79,NA,"<div style=""width:500px;"">
                            <p style=""font-size:50px; font-weight:bold;""
                            >sad</p>
                            <div style=""width:240px; margin: auto;"">
                                <img src=""images/map15_BrBG_scaleRev_orientDef_180.png"" style= ""width:200px""alt=""img"">
                            </div>
                        </div>",0.755,"",0,"",NA,"","images/map15_BrBG_scaleRev_orientDef_180.png","sad",1,15,15,"BrBG","orientDef","scaleRev","180",NA,NA
"","","","","","html-slider-response",26,127086,"0.0-22.0","rol1bo6dju",79,NA,"<div style=""width:500px;"">
                            <p style=""font-size:50px; font-weight:bold;""
                            >sad</p>
                            <div style=""width:240px; margin: auto;"">
                                <img src=""images/map13_BuGn_scaleDef_orientDef_090.png"" style= ""width:200px""alt=""img"">
                            </div>
                        </div>",0.255,"",0,"",NA,"","images/map13_BuGn_scaleDef_orientDef_090.png","sad",1,13,13,"BuGn","orientDef","scaleDef","090",NA,NA
"","","","","","html-slider-response",27,130106,"0.0-23.0","rol1bo6dju",79,NA,"<div style=""width:500px;"">
                            <p style=""font-size:50px; font-weight:bold;""
                            >sad</p>
                            <div style=""width:240px; margin: auto;"">
                                <img src=""images/map07_Oranges_scaleRev_orientDef_180.png"" style= ""width:200px""alt=""img"">
                            </div>
                        </div>",0.78,"",0,"",NA,"","images/map07_Oranges_scaleRev_orientDef_180.png","sad",1,7,7,"Oranges","orientDef","scaleRev","180",NA,NA
"","","","","","html-slider-response",28,134901,"0.0-24.0","rol1bo6dju",79,NA,"<div style=""width:500px;"">
                            <p style=""font-size:50px; font-weight:bold;""
                            >sad</p>
                            <div style=""width:240px; margin: auto;"">
                                <img src=""images/map05_Greys_scaleDef_orientDef_090.png"" style= ""width:200px""alt=""img"">
                            </div>
                        </div>",0.775,"",0,"",NA,"","images/map05_Greys_scaleDef_orientDef_090.png","sad",1,5,5,"Greys","orientDef","scaleDef","090",NA,NA
"","","","","","html-slider-response",29,137402,"0.0-25.0","rol1bo6dju",79,NA,"<div style=""width:500px;"">
                            <p style=""font-size:50px; font-weight:bold;""
                            >sad</p>
                            <div style=""width:240px; margin: auto;"">
                                <img src=""images/map02_viridis_scaleRev_orientDef_000.png"" style= ""width:200px""alt=""img"">
                            </div>
                        </div>",0.77,"",0,"",NA,"","images/map02_viridis_scaleRev_orientDef_000.png","sad",1,2,2,"viridis","orientDef","scaleRev","000",NA,NA
"","","","","","html-slider-response",30,139284,"0.0-26.0","rol1bo6dju",79,NA,"<div style=""width:500px;"">
                            <p style=""font-size:50px; font-weight:bold;""
                            >sad</p>
                            <div style=""width:240px; margin: auto;"">
                                <img src=""images/map10_RdPu_scaleDef_orientMir_090.png"" style= ""width:200px""alt=""img"">
                            </div>
                        </div>",0.245,"",0,"",NA,"","images/map10_RdPu_scaleDef_orientMir_090.png","sad",1,10,10,"RdPu","orientMir","scaleDef","090",NA,NA
"","","","","","html-slider-response",31,140967,"0.0-27.0","rol1bo6dju",79,NA,"<div style=""width:500px;"">
                            <p style=""font-size:50px; font-weight:bold;""
                            >sad</p>
                            <div style=""width:240px; margin: auto;"">
                                <img src=""images/map27_gist_earth_scaleDef_orientDef_270.png"" style= ""width:200px""alt=""img"">
                            </div>
                        </div>",0.1275,"",0,"",NA,"","images/map27_gist_earth_scaleDef_orientDef_270.png","sad",1,27,27,"gist","scaleDef","earth","orientDef",NA,NA
"","","","","","html-slider-response",32,143140,"0.0-28.0","rol1bo6dju",79,NA,"<div style=""width:500px;"">
                            <p style=""font-size:50px; font-weight:bold;""
                            >sad</p>
                            <div style=""width:240px; margin: auto;"">
                                <img src=""images/map02_magma_scaleDef_orientMir_090.png"" style= ""width:200px""alt=""img"">
                            </div>
                        </div>",0.2,"",0,"",NA,"","images/map02_magma_scaleDef_orientMir_090.png","sad",1,2,2,"magma","orientMir","scaleDef","090",NA,NA
"","","","","","html-slider-response",33,145101,"0.0-29.0","rol1bo6dju",79,NA,"<div style=""width:500px;"">
                            <p style=""font-size:50px; font-weight:bold;""
                            >sad</p>
                            <div style=""width:240px; margin: auto;"">
                                <img src=""images/map10_YlOrRd_scaleRev_orientDef_000.png"" style= ""width:200px""alt=""img"">
                            </div>
                        </div>",0.1725,"",0,"",NA,"","images/map10_YlOrRd_scaleRev_orientDef_000.png","sad",1,10,10,"YlOrRd","orientDef","scaleRev","000",NA,NA
"","","","","","html-slider-response",34,146640,"0.0-30.0","rol1bo6dju",79,NA,"<div style=""width:500px;"">
                            <p style=""font-size:50px; font-weight:bold;""
                            >sad</p>
                            <div style=""width:240px; margin: auto;"">
                                <img src=""images/map26_seismic_scaleDef_orientDef_270.png"" style= ""width:200px""alt=""img"">
                            </div>
                        </div>",0.1825,"",0,"",NA,"","images/map26_seismic_scaleDef_orientDef_270.png","sad",1,26,26,"seismic","orientDef","scaleDef","270",NA,NA
"","","","","","html-slider-response",35,148381,"0.0-31.0","rol1bo6dju",79,NA,"<div style=""width:500px;"">
                            <p style=""font-size:50px; font-weight:bold;""
                            >sad</p>
                            <div style=""width:240px; margin: auto;"">
                                <img src=""images/map15_BrBG_scaleDef_orientDef_090.png"" style= ""width:200px""alt=""img"">
                            </div>
                        </div>",0.7925,"",0,"",NA,"","images/map15_BrBG_scaleDef_orientDef_090.png","sad",1,15,15,"BrBG","orientDef","scaleDef","090",NA,NA
"","","","","","html-slider-response",36,149820,"0.0-32.0","rol1bo6dju",79,NA,"<div style=""width:500px;"">
                            <p style=""font-size:50px; font-weight:bold;""
                            >sad</p>
                            <div style=""width:240px; margin: auto;"">
                                <img src=""images/map26_berlin_scaleDef_orientMir_090.png"" style= ""width:200px""alt=""img"">
                            </div>
                        </div>",0.2125,"",0,"",NA,"","images/map26_berlin_scaleDef_orientMir_090.png","sad",1,26,26,"berlin","orientMir","scaleDef","090",NA,NA
"","","","","","html-slider-response",37,151281,"0.0-33.0","rol1bo6dju",79,NA,"<div style=""width:500px;"">
                            <p style=""font-size:50px; font-weight:bold;""
                            >sad</p>
                            <div style=""width:240px; margin: auto;"">
                                <img src=""images/map12_BuPu_scaleRev_orientDef_000.png"" style= ""width:200px""alt=""img"">
                            </div>
                        </div>",0.795,"",0,"",NA,"","images/map12_BuPu_scaleRev_orientDef_000.png","sad",1,12,12,"BuPu","orientDef","scaleRev","000",NA,NA
"","","","","","html-slider-response",38,152913,"0.0-34.0","rol1bo6dju",79,NA,"<div style=""width:500px;"">
                            <p style=""font-size:50px; font-weight:bold;""
                            >sad</p>
                            <div style=""width:240px; margin: auto;"">
                                <img src=""images/map05_Purples_scaleRev_orientMir_000.png"" style= ""width:200px""alt=""img"">
                            </div>
                        </div>",0.21,"",0,"",NA,"","images/map05_Purples_scaleRev_orientMir_000.png","sad",1,5,5,"Purples","orientMir","scaleRev","000",NA,NA
"","","","","","html-slider-response",39,156627,"0.0-35.0","rol1bo6dju",79,NA,"<div style=""width:500px;"">
                            <p style=""font-size:50px; font-weight:bold;""
                            >sad</p>
                            <div style=""width:240px; margin: auto;"">
                                <img src=""images/map10_PuRd_scaleRev_orientMir_000.png"" style= ""width:200px""alt=""img"">
                            </div>
                        </div>",0.815,"",0,"",NA,"","images/map10_PuRd_scaleRev_orientMir_000.png","sad",1,10,10,"PuRd","orientMir","scaleRev","000",NA,NA
"","","","","","html-slider-response",40,158432,"0.0-36.0","rol1bo6dju",79,NA,"<div style=""width:500px;"">
                            <p style=""font-size:50px; font-weight:bold;""
                            >sad</p>
                            <div style=""width:240px; margin: auto;"">
                                <img src=""images/map10_OrRd_scaleRev_orientDef_180.png"" style= ""width:200px""alt=""img"">
                            </div>
                        </div>",0.83,"",0,"",NA,"","images/map10_OrRd_scaleRev_orientDef_180.png","sad",1,10,10,"OrRd","orientDef","scaleRev","180",NA,NA
"","","","","","html-slider-response",41,159993,"0.0-37.0","rol1bo6dju",79,NA,"<div style=""width:500px;"">
                            <p style=""font-size:50px; font-weight:bold;""
                            >sad</p>
                            <div style=""width:240px; margin: auto;"">
                                <img src=""images/map15_PuOr_scaleDef_orientDef_270.png"" style= ""width:200px""alt=""img"">
                            </div>
                        </div>",0.235,"",0,"",NA,"","images/map15_PuOr_scaleDef_orientDef_270.png","sad",1,15,15,"PuOr","orientDef","scaleDef","270",NA,NA
"","","","","","html-slider-response",42,161460,"0.0-38.0","rol1bo6dju",79,NA,"<div style=""width:500px;"">
                            <p style=""font-size:50px; font-weight:bold;""
                            >sad</p>
                            <div style=""width:240px; margin: auto;"">
                                <img src=""images/map07_Greens_scaleRev_orientDef_000.png"" style= ""width:200px""alt=""img"">
                            </div>
                        </div>",0.1575,"",0,"",NA,"","images/map07_Greens_scaleRev_orientDef_000.png","sad",1,7,7,"Greens","orientDef","scaleRev","000",NA,NA
"","","","","","html-slider-response",43,163592,"0.0-39.0","rol1bo6dju",79,NA,"<div style=""width:500px;"">
                            <p style=""font-size:50px; font-weight:bold;""
                            >sad</p>
                            <div style=""width:240px; margin: auto;"">
                                <img src=""images/map13_PiYG_scaleRev_orientMir_180.png"" style= ""width:200px""alt=""img"">
                            </div>
                        </div>",0.235,"",0,"",NA,"","images/map13_PiYG_scaleRev_orientMir_180.png","sad",1,13,13,"PiYG","orientMir","scaleRev","180",NA,NA
"","","","","","html-slider-response",44,166109,"0.0-40.0","rol1bo6dju",79,NA,"<div style=""width:500px;"">
                            <p style=""font-size:50px; font-weight:bold;""
                            >sad</p>
                            <div style=""width:240px; margin: auto;"">
                                <img src=""images/map27_managua_scaleRev_orientDef_000.png"" style= ""width:200px""alt=""img"">
                            </div>
                        </div>",0.775,"",0,"",NA,"","images/map27_managua_scaleRev_orientDef_000.png","sad",1,27,27,"managua","orientDef","scaleRev","000",NA,NA
"","","","","","html-slider-response",45,168539,"0.0-41.0","rol1bo6dju",79,NA,"<div style=""width:500px;"">
                            <p style=""font-size:50px; font-weight:bold;""
                            >sad</p>
                            <div style=""width:240px; margin: auto;"">
                                <img src=""images/map12_PuBuGn_scaleDef_orientMir_270.png"" style= ""width:200px""alt=""img"">
                            </div>
                        </div>",0.825,"",0,"",NA,"","images/map12_PuBuGn_scaleDef_orientMir_270.png","sad",1,12,12,"PuBuGn","orientMir","scaleDef","270",NA,NA
"","","","","","html-slider-response",46,180172,"0.0-42.0","rol1bo6dju",79,NA,"<div style=""width:500px;"">
                            <p style=""font-size:50px; font-weight:bold;""
                            >sad</p>
                            <div style=""width:240px; margin: auto;"">
                                <img src=""images/map26_seismic_scaleRev_orientMir_000.png"" style= ""width:200px""alt=""img"">
                            </div>
                        </div>",0.6575,"",0,"",NA,"","images/map26_seismic_scaleRev_orientMir_000.png","sad",1,26,26,"seismic","orientMir","scaleRev","000",NA,NA
"","","","","","html-slider-response",47,182651,"0.0-43.0","rol1bo6dju",79,NA,"<div style=""width:500px;"">
                            <p style=""font-size:50px; font-weight:bold;""
                            >sad</p>
                            <div style=""width:240px; margin: auto;"">
                                <img src=""images/map02_plasma_scaleDef_orientDef_090.png"" style= ""width:200px""alt=""img"">
                            </div>
                        </div>",0.02,"",0,"",NA,"","images/map02_plasma_scaleDef_orientDef_090.png","sad",1,2,2,"plasma","orientDef","scaleDef","090",NA,NA
"","","","","","html-slider-response",48,186070,"0.0-44.0","rol1bo6dju",79,NA,"<div style=""width:500px;"">
                            <p style=""font-size:50px; font-weight:bold;""
                            >sad</p>
                            <div style=""width:240px; margin: auto;"">
                                <img src=""images/map23_RdYlBu_scaleRev_orientDef_180.png"" style= ""width:200px""alt=""img"">
                            </div>
                        </div>",0.24,"",0,"",NA,"","images/map23_RdYlBu_scaleRev_orientDef_180.png","sad",1,23,23,"RdYlBu","orientDef","scaleRev","180",NA,NA
"","","","","","html-slider-response",49,187937,"0.0-45.0","rol1bo6dju",79,NA,"<div style=""width:500px;"">
                            <p style=""font-size:50px; font-weight:bold;""
                            >sad</p>
                            <div style=""width:240px; margin: auto;"">
                                <img src=""images/map23_RdYlGn_scaleRev_orientMir_000.png"" style= ""width:200px""alt=""img"">
                            </div>
                        </div>",0.245,"",0,"",NA,"","images/map23_RdYlGn_scaleRev_orientMir_000.png","sad",1,23,23,"RdYlGn","orientMir","scaleRev","000",NA,NA
"","","","","","html-slider-response",50,189531,"0.0-46.0","rol1bo6dju",79,NA,"<div style=""width:500px;"">
                            <p style=""font-size:50px; font-weight:bold;""
                            >sad</p>
                            <div style=""width:240px; margin: auto;"">
                                <img src=""images/map12_PuBu_scaleDef_orientDef_270.png"" style= ""width:200px""alt=""img"">
                            </div>
                        </div>",1,"",0,"",NA,"","images/map12_PuBu_scaleDef_orientDef_270.png","sad",1,12,12,"PuBu","orientDef","scaleDef","270",NA,NA
"","","","","","html-slider-response",51,190972,"0.0-47.0","rol1bo6dju",79,NA,"<div style=""width:500px;"">
                            <p style=""font-size:50px; font-weight:bold;""
                            >sad</p>
                            <div style=""width:240px; margin: auto;"">
                                <img src=""images/map05_Blues_scaleRev_orientMir_180.png"" style= ""width:200px""alt=""img"">
                            </div>
                        </div>",1,"",0,"",NA,"","images/map05_Blues_scaleRev_orientMir_180.png","sad",1,5,5,"Blues","orientMir","scaleRev","180",NA,NA
"","","","","","html-slider-response",52,192541,"0.0-48.0","rol1bo6dju",79,NA,"<div style=""width:500px;"">
                            <p style=""font-size:50px; font-weight:bold;""
                            >sad</p>
                            <div style=""width:240px; margin: auto;"">
                                <img src=""images/map10_OrRd_scaleDef_orientDef_090.png"" style= ""width:200px""alt=""img"">
                            </div>
                        </div>",0,"",0,"",NA,"","images/map10_OrRd_scaleDef_orientDef_090.png","sad",1,10,10,"OrRd","orientDef","scaleDef","090",NA,NA
"","","","","","html-slider-response",53,194305,"0.0-49.0","rol1bo6dju",79,NA,"<div style=""width:500px;"">
                            <p style=""font-size:50px; font-weight:bold;""
                            >sad</p>
                            <div style=""width:240px; margin: auto;"">
                                <img src=""images/map12_YlGnBu_scaleDef_orientMir_090.png"" style= ""width:200px""alt=""img"">
                            </div>
                        </div>",1,"",0,"",NA,"","images/map12_YlGnBu_scaleDef_orientMir_090.png","sad",1,12,12,"YlGnBu","orientMir","scaleDef","090",NA,NA
"","","","","","html-slider-response",54,199943,"0.0-50.0","rol1bo6dju",79,NA,"<div style=""width:500px;"">
                            <p style=""font-size:50px; font-weight:bold;""
                            >sad</p>
                            <div style=""width:240px; margin: auto;"">
                                <img src=""images/map23_Spectral_scaleRev_orientMir_180.png"" style= ""width:200px""alt=""img"">
                            </div>
                        </div>",0.5,"",0,"",NA,"","images/map23_Spectral_scaleRev_orientMir_180.png","sad",1,23,23,"Spectral","orientMir","scaleRev","180",NA,NA
"","","","","","html-slider-response",55,201226,"0.0-51.0","rol1bo6dju",79,NA,"<div style=""width:500px;"">
                            <p style=""font-size:50px; font-weight:bold;""
                            >sad</p>
                            <div style=""width:240px; margin: auto;"">
                                <img src=""images/map13_PiYG_scaleDef_orientMir_090.png"" style= ""width:200px""alt=""img"">
                            </div>
                        </div>",0,"",0,"",NA,"","images/map13_PiYG_scaleDef_orientMir_090.png","sad",1,13,13,"PiYG","orientMir","scaleDef","090",NA,NA
"","","","","","html-slider-response",56,202869,"0.0-52.0","rol1bo6dju",79,NA,"<div style=""width:500px;"">
                            <p style=""font-size:50px; font-weight:bold;""
                            >sad</p>
                            <div style=""width:240px; margin: auto;"">
                                <img src=""images/map02_inferno_scaleRev_orientMir_000.png"" style= ""width:200px""alt=""img"">
                            </div>
                        </div>",0,"",0,"",NA,"","images/map02_inferno_scaleRev_orientMir_000.png","sad",1,2,2,"inferno","orientMir","scaleRev","000",NA,NA
"","","","","","html-slider-response",57,205424,"0.0-53.0","rol1bo6dju",79,NA,"<div style=""width:500px;"">
                            <p style=""font-size:50px; font-weight:bold;""
                            >sad</p>
                            <div style=""width:240px; margin: auto;"">
                                <img src=""images/map05_cividis_scaleRev_orientDef_000.png"" style= ""width:200px""alt=""img"">
                            </div>
                        </div>",0.74,"",0,"",NA,"","images/map05_cividis_scaleRev_orientDef_000.png","sad",1,5,5,"cividis","orientDef","scaleRev","000",NA,NA
"","","","","","html-button-response",58,207946,"0.0-54.0","rol1bo6dju",79,2021,"<p>You are doing great!<br></br> You are halway done with the current block. When you are ready to continue, click the 'Continue' button.</p>",0.5,"",NA,"",NA,"","","",NA,NA,NA,"","","","",NA,NA
"","","","","","html-slider-response",59,210909,"0.0-55.0","rol1bo6dju",79,NA,"<div style=""width:500px;"">
                            <p style=""font-size:50px; font-weight:bold;""
                            >sad</p>
                            <div style=""width:240px; margin: auto;"">
                                <img src=""images/map27_vanimo_scaleRev_orientDef_180.png"" style= ""width:200px""alt=""img"">
                            </div>
                        </div>",0.555,"",0,"",NA,"","images/map27_vanimo_scaleRev_orientDef_180.png","sad",1,27,27,"vanimo","orientDef","scaleRev","180",NA,NA
"","","","","","html-slider-response",60,212536,"0.0-56.0","rol1bo6dju",79,NA,"<div style=""width:500px;"">
                            <p style=""font-size:50px; font-weight:bold;""
                            >sad</p>
                            <div style=""width:240px; margin: auto;"">
                                <img src=""images/map23_Spectral_scaleDef_orientMir_090.png"" style= ""width:200px""alt=""img"">
                            </div>
                        </div>",0.33,"",0,"",NA,"","images/map23_Spectral_scaleDef_orientMir_090.png","sad",1,23,23,"Spectral","orientMir","scaleDef","090",NA,NA
"","","","","","html-slider-response",61,214155,"0.0-57.0","rol1bo6dju",79,NA,"<div style=""width:500px;"">
                            <p style=""font-size:50px; font-weight:bold;""
                            >sad</p>
                            <div style=""width:240px; margin: auto;"">
                                <img src=""images/map07_YlOrRd_scaleDef_orientMir_270.png"" style= ""width:200px""alt=""img"">
                            </div>
                        </div>",0.175,"",0,"",NA,"","images/map07_YlOrRd_scaleDef_orientMir_270.png","sad",1,7,7,"YlOrRd","orientMir","scaleDef","270",NA,NA
"","","","","","html-slider-response",62,217067,"0.0-58.0","rol1bo6dju",79,NA,"<div style=""width:500px;"">
                            <p style=""font-size:50px; font-weight:bold;""
                            >sad</p>
                            <div style=""width:240px; margin: auto;"">
                                <img src=""images/map10_BuPu_scaleDef_orientMir_270.png"" style= ""width:200px""alt=""img"">
                            </div>
                        </div>",0.7975,"",0,"",NA,"","images/map10_BuPu_scaleDef_orientMir_270.png","sad",1,10,10,"BuPu","orientMir","scaleDef","270",NA,NA
"","","","","","html-slider-response",63,219219,"0.0-59.0","rol1bo6dju",79,NA,"<div style=""width:500px;"">
                            <p style=""font-size:50px; font-weight:bold;""
                            >sad</p>
                            <div style=""width:240px; margin: auto;"">
                                <img src=""images/map15_PuOr_scaleRev_orientMir_000.png"" style= ""width:200px""alt=""img"">
                            </div>
                        </div>",0.255,"",0,"",NA,"","images/map15_PuOr_scaleRev_orientMir_000.png","sad",1,15,15,"PuOr","orientMir","scaleRev","000",NA,NA
"","","","","","html-slider-response",64,220812,"0.0-60.0","rol1bo6dju",79,NA,"<div style=""width:500px;"">
                            <p style=""font-size:50px; font-weight:bold;""
                            >sad</p>
                            <div style=""width:240px; margin: auto;"">
                                <img src=""images/map02_magma_scaleRev_orientMir_180.png"" style= ""width:200px""alt=""img"">
                            </div>
                        </div>",0,"",0,"",NA,"","images/map02_magma_scaleRev_orientMir_180.png","sad",1,2,2,"magma","orientMir","scaleRev","180",NA,NA
"","","","","","html-slider-response",65,222601,"0.0-61.0","rol1bo6dju",79,NA,"<div style=""width:500px;"">
                            <p style=""font-size:50px; font-weight:bold;""
                            >sad</p>
                            <div style=""width:240px; margin: auto;"">
                                <img src=""images/map15_RdBu_scaleDef_orientMir_270.png"" style= ""width:200px""alt=""img"">
                            </div>
                        </div>",0.665,"",0,"",NA,"","images/map15_RdBu_scaleDef_orientMir_270.png","sad",1,15,15,"RdBu","orientMir","scaleDef","270",NA,NA
"","","","","","html-slider-response",66,224210,"0.0-62.0","rol1bo6dju",79,NA,"<div style=""width:500px;"">
                            <p style=""font-size:50px; font-weight:bold;""
                            >sad</p>
                            <div style=""width:240px; margin: auto;"">
                                <img src=""images/map07_YlOrBr_scaleRev_orientMir_180.png"" style= ""width:200px""alt=""img"">
                            </div>
                        </div>",0.22,"",0,"",NA,"","images/map07_YlOrBr_scaleRev_orientMir_180.png","sad",1,7,7,"YlOrBr","orientMir","scaleRev","180",NA,NA
"","","","","","html-slider-response",67,226155,"0.0-63.0","rol1bo6dju",79,NA,"<div style=""width:500px;"">
                            <p style=""font-size:50px; font-weight:bold;""
                            >sad</p>
                            <div style=""width:240px; margin: auto;"">
                                <img src=""images/map13_PuBuGn_scaleRev_orientDef_000.png"" style= ""width:200px""alt=""img"">
                            </div>
                        </div>",0.9525,"",0,"",NA,"","images/map13_PuBuGn_scaleRev_orientDef_000.png","sad",1,13,13,"PuBuGn","orientDef","scaleRev","000",NA,NA
"","","","","","html-slider-response",68,227736,"0.0-64.0","rol1bo6dju",79,NA,"<div style=""width:500px;"">
                            <p style=""font-size:50px; font-weight:bold;""
                            >sad</p>
                            <div style=""width:240px; margin: auto;"">
                                <img src=""images/map15_RdGy_scaleDef_orientMir_090.png"" style= ""width:200px""alt=""img"">
                            </div>
                        </div>",0.585,"",0,"",NA,"","images/map15_RdGy_scaleDef_orientMir_090.png","sad",1,15,15,"RdGy","orientMir","scaleDef","090",NA,NA
"","","","","","html-slider-response",69,229748,"0.0-65.0","rol1bo6dju",79,NA,"<div style=""width:500px;"">
                            <p style=""font-size:50px; font-weight:bold;""
                            >sad</p>
                            <div style=""width:240px; margin: auto;"">
                                <img src=""images/map10_RdPu_scaleRev_orientMir_180.png"" style= ""width:200px""alt=""img"">
                            </div>
                        </div>",0.2425,"",0,"",NA,"","images/map10_RdPu_scaleRev_orientMir_180.png","sad",1,10,10,"RdPu","orientMir","scaleRev","180",NA,NA
"","","","","","html-slider-response",70,232920,"0.0-66.0","rol1bo6dju",79,NA,"<div style=""width:500px;"">
                            <p style=""font-size:50px; font-weight:bold;""
                            >sad</p>
                            <div style=""width:240px; margin: auto;"">
                                <img src=""images/map27_vanimo_scaleDef_orientDef_090.png"" style= ""width:200px""alt=""img"">
                            </div>
                        </div>",0.3275,"",0,"",NA,"","images/map27_vanimo_scaleDef_orientDef_090.png","sad",1,27,27,"vanimo","orientDef","scaleDef","090",NA,NA
"","","","","","html-slider-response",71,235389,"0.0-67.0","rol1bo6dju",79,NA,"<div style=""width:500px;"">
                            <p style=""font-size:50px; font-weight:bold;""
                            >sad</p>
                            <div style=""width:240px; margin: auto;"">
                                <img src=""images/map27_viridis_scaleDef_orientMir_270.png"" style= ""width:200px""alt=""img"">
                            </div>
                        </div>",0.615,"",0,"",NA,"","images/map27_viridis_scaleDef_orientMir_270.png","sad",1,27,27,"viridis","orientMir","scaleDef","270",NA,NA
"","","","","","html-slider-response",72,237262,"0.0-68.0","rol1bo6dju",79,NA,"<div style=""width:500px;"">
                            <p style=""font-size:50px; font-weight:bold;""
                            >sad</p>
                            <div style=""width:240px; margin: auto;"">
                                <img src=""images/map23_RdBu_scaleRev_orientDef_000.png"" style= ""width:200px""alt=""img"">
                            </div>
                        </div>",0.5725,"",0,"",NA,"","images/map23_RdBu_scaleRev_orientDef_000.png","sad",1,23,23,"RdBu","orientDef","scaleRev","000",NA,NA
"","","","","","html-slider-response",73,239178,"0.0-69.0","rol1bo6dju",79,NA,"<div style=""width:500px;"">
                            <p style=""font-size:50px; font-weight:bold;""
                            >sad</p>
                            <div style=""width:240px; margin: auto;"">
                                <img src=""images/map02_plasma_scaleRev_orientDef_180.png"" style= ""width:200px""alt=""img"">
                            </div>
                        </div>",0.2025,"",0,"",NA,"","images/map02_plasma_scaleRev_orientDef_180.png","sad",1,2,2,"plasma","orientDef","scaleRev","180",NA,NA
"","","","","","html-slider-response",74,241067,"0.0-70.0","rol1bo6dju",79,NA,"<div style=""width:500px;"">
                            <p style=""font-size:50px; font-weight:bold;""
                            >sad</p>
                            <div style=""width:240px; margin: auto;"">
                                <img src=""images/map12_YlGnBu_scaleRev_orientMir_180.png"" style= ""width:200px""alt=""img"">
                            </div>
                        </div>",0.78,"",0,"",NA,"","images/map12_YlGnBu_scaleRev_orientMir_180.png","sad",1,12,12,"YlGnBu","orientMir","scaleRev","180",NA,NA
"","","","","","html-slider-response",75,245445,"0.0-71.0","rol1bo6dju",79,NA,"<div style=""width:500px;"">
                            <p style=""font-size:50px; font-weight:bold;""
                            >sad</p>
                            <div style=""width:240px; margin: auto;"">
                                <img src=""images/map13_BuGn_scaleRev_orientDef_180.png"" style= ""width:200px""alt=""img"">
                            </div>
                        </div>",0.5625,"",0,"",NA,"","images/map13_BuGn_scaleRev_orientDef_180.png","sad",1,13,13,"BuGn","orientDef","scaleRev","180",NA,NA
"","","","","","html-slider-response",76,247197,"0.0-72.0","rol1bo6dju",79,NA,"<div style=""width:500px;"">
                            <p style=""font-size:50px; font-weight:bold;""
                            >sad</p>
                            <div style=""width:240px; margin: auto;"">
                                <img src=""images/map07_Oranges_scaleDef_orientDef_090.png"" style= ""width:200px""alt=""img"">
                            </div>
                        </div>",0.2625,"",0,"",NA,"","images/map07_Oranges_scaleDef_orientDef_090.png","sad",1,7,7,"Oranges","orientDef","scaleDef","090",NA,NA
"","","","","","html-slider-response",77,249747,"0.0-73.0","rol1bo6dju",79,NA,"<div style=""width:500px;"">
                            <p style=""font-size:50px; font-weight:bold;""
                            >sad</p>
                            <div style=""width:240px; margin: auto;"">
                                <img src=""images/map27_turbo_scaleRev_orientMir_180.png"" style= ""width:200px""alt=""img"">
                            </div>
                        </div>",0.2475,"",0,"",NA,"","images/map27_turbo_scaleRev_orientMir_180.png","sad",1,27,27,"turbo","orientMir","scaleRev","180",NA,NA
"","","","","","html-slider-response",78,251813,"0.0-74.0","rol1bo6dju",79,NA,"<div style=""width:500px;"">
                            <p style=""font-size:50px; font-weight:bold;""
                            >sad</p>
                            <div style=""width:240px; margin: auto;"">
                                <img src=""images/map02_inferno_scaleDef_orientDef_270.png"" style= ""width:200px""alt=""img"">
                            </div>
                        </div>",0.2425,"",0,"",NA,"","images/map02_inferno_scaleDef_orientDef_270.png","sad",1,2,2,"inferno","orientDef","scaleDef","270",NA,NA
"","","","","","html-slider-response",79,253639,"0.0-75.0","rol1bo6dju",79,NA,"<div style=""width:500px;"">
                            <p style=""font-size:50px; font-weight:bold;""
                            >sad</p>
                            <div style=""width:240px; margin: auto;"">
                                <img src=""images/map13_PRGn_scaleDef_orientMir_270.png"" style= ""width:200px""alt=""img"">
                            </div>
                        </div>",0.5925,"",0,"",NA,"","images/map13_PRGn_scaleDef_orientMir_270.png","sad",1,13,13,"PRGn","orientMir","scaleDef","270",NA,NA
"","","","","","html-slider-response",80,254995,"0.0-76.0","rol1bo6dju",79,NA,"<div style=""width:500px;"">
                            <p style=""font-size:50px; font-weight:bold;""
                            >sad</p>
                            <div style=""width:240px; margin: auto;"">
                                <img src=""images/map12_GnBu_scaleRev_orientDef_180.png"" style= ""width:200px""alt=""img"">
                            </div>
                        </div>",1,"",0,"",NA,"","images/map12_GnBu_scaleRev_orientDef_180.png","sad",1,12,12,"GnBu","orientDef","scaleRev","180",NA,NA
"","","","","","html-slider-response",81,256708,"0.0-77.0","rol1bo6dju",79,NA,"<div style=""width:500px;"">
                            <p style=""font-size:50px; font-weight:bold;""
                            >sad</p>
                            <div style=""width:240px; margin: auto;"">
                                <img src=""images/map23_RdYlGn_scaleDef_orientDef_270.png"" style= ""width:200px""alt=""img"">
                            </div>
                        </div>",0.2675,"",0,"",NA,"","images/map23_RdYlGn_scaleDef_orientDef_270.png","sad",1,23,23,"RdYlGn","orientDef","scaleDef","270",NA,NA
"","","","","","html-slider-response",82,258320,"0.0-78.0","rol1bo6dju",79,NA,"<div style=""width:500px;"">
                            <p style=""font-size:50px; font-weight:bold;""
                            >sad</p>
                            <div style=""width:240px; margin: auto;"">
                                <img src=""images/map07_YlOrBr_scaleDef_orientMir_090.png"" style= ""width:200px""alt=""img"">
                            </div>
                        </div>",0.015,"",0,"",NA,"","images/map07_YlOrBr_scaleDef_orientMir_090.png","sad",1,7,7,"YlOrBr","orientMir","scaleDef","090",NA,NA
"","","","","","html-slider-response",83,259902,"0.0-79.0","rol1bo6dju",79,NA,"<div style=""width:500px;"">
                            <p style=""font-size:50px; font-weight:bold;""
                            >sad</p>
                            <div style=""width:240px; margin: auto;"">
                                <img src=""images/map26_bwr_scaleRev_orientDef_180.png"" style= ""width:200px""alt=""img"">
                            </div>
                        </div>",0.725,"",0,"",NA,"","images/map26_bwr_scaleRev_orientDef_180.png","sad",1,26,26,"bwr","orientDef","scaleRev","180",NA,NA
"","","","","","html-slider-response",84,261389,"0.0-80.0","rol1bo6dju",79,NA,"<div style=""width:500px;"">
                            <p style=""font-size:50px; font-weight:bold;""
                            >sad</p>
                            <div style=""width:240px; margin: auto;"">
                                <img src=""images/map26_bwr_scaleDef_orientDef_090.png"" style= ""width:200px""alt=""img"">
                            </div>
                        </div>",0.76,"",0,"",NA,"","images/map26_bwr_scaleDef_orientDef_090.png","sad",1,26,26,"bwr","orientDef","scaleDef","090",NA,NA
"","","","","","html-slider-response",85,263074,"0.0-81.0","rol1bo6dju",79,NA,"<div style=""width:500px;"">
                            <p style=""font-size:50px; font-weight:bold;""
                            >sad</p>
                            <div style=""width:240px; margin: auto;"">
                                <img src=""images/map26_managua_scaleDef_orientMir_270.png"" style= ""width:200px""alt=""img"">
                            </div>
                        </div>",0.8,"",0,"",NA,"","images/map26_managua_scaleDef_orientMir_270.png","sad",1,26,26,"managua","orientMir","scaleDef","270",NA,NA
"","","","","","html-slider-response",86,265028,"0.0-82.0","rol1bo6dju",79,NA,"<div style=""width:500px;"">
                            <p style=""font-size:50px; font-weight:bold;""
                            >sad</p>
                            <div style=""width:240px; margin: auto;"">
                                <img src=""images/map27_gist_earth_scaleRev_orientMir_000.png"" style= ""width:200px""alt=""img"">
                            </div>
                        </div>",0.3775,"",0,"",NA,"","images/map27_gist_earth_scaleRev_orientMir_000.png","sad",1,27,27,"gist","scaleRev","earth","orientMir",NA,NA
"","","","","","html-slider-response",87,267099,"0.0-83.0","rol1bo6dju",79,NA,"<div style=""width:500px;"">
                            <p style=""font-size:50px; font-weight:bold;""
                            >sad</p>
                            <div style=""width:240px; margin: auto;"">
                                <img src=""images/map13_YlGn_scaleRev_orientMir_000.png"" style= ""width:200px""alt=""img"">
                            </div>
                        </div>",0.585,"",0,"",NA,"","images/map13_YlGn_scaleRev_orientMir_000.png","sad",1,13,13,"YlGn","orientMir","scaleRev","000",NA,NA
"","","","","","html-slider-response",88,268582,"0.0-84.0","rol1bo6dju",79,NA,"<div style=""width:500px;"">
                            <p style=""font-size:50px; font-weight:bold;""
                            >sad</p>
                            <div style=""width:240px; margin: auto;"">
                                <img src=""images/map23_RdYlBu_scaleDef_orientDef_090.png"" style= ""width:200px""alt=""img"">
                            </div>
                        </div>",0.805,"",0,"",NA,"","images/map23_RdYlBu_scaleDef_orientDef_090.png","sad",1,23,23,"RdYlBu","orientDef","scaleDef","090",NA,NA
"","","","","","html-slider-response",89,270366,"0.0-85.0","rol1bo6dju",79,NA,"<div style=""width:500px;"">
                            <p style=""font-size:50px; font-weight:bold;""
                            >sad</p>
                            <div style=""width:240px; margin: auto;"">
                                <img src=""images/map23_coolwarm_scaleDef_orientMir_270.png"" style= ""width:200px""alt=""img"">
                            </div>
                        </div>",0.685,"",0,"",NA,"","images/map23_coolwarm_scaleDef_orientMir_270.png","sad",1,23,23,"coolwarm","orientMir","scaleDef","270",NA,NA
"","","","","","html-slider-response",90,272018,"0.0-86.0","rol1bo6dju",79,NA,"<div style=""width:500px;"">
                            <p style=""font-size:50px; font-weight:bold;""
                            >sad</p>
                            <div style=""width:240px; margin: auto;"">
                                <img src=""images/map05_Greys_scaleRev_orientDef_180.png"" style= ""width:200px""alt=""img"">
                            </div>
                        </div>",1,"",0,"",NA,"","images/map05_Greys_scaleRev_orientDef_180.png","sad",1,5,5,"Greys","orientDef","scaleRev","180",NA,NA
"","","","","","html-slider-response",91,273703,"0.0-87.0","rol1bo6dju",79,NA,"<div style=""width:500px;"">
                            <p style=""font-size:50px; font-weight:bold;""
                            >sad</p>
                            <div style=""width:240px; margin: auto;"">
                                <img src=""images/map10_PuRd_scaleDef_orientDef_270.png"" style= ""width:200px""alt=""img"">
                            </div>
                        </div>",0.135,"",0,"",NA,"","images/map10_PuRd_scaleDef_orientDef_270.png","sad",1,10,10,"PuRd","orientDef","scaleDef","270",NA,NA
"","","","","","html-slider-response",92,275266,"0.0-88.0","rol1bo6dju",79,NA,"<div style=""width:500px;"">
                            <p style=""font-size:50px; font-weight:bold;""
                            >sad</p>
                            <div style=""width:240px; margin: auto;"">
                                <img src=""images/map15_RdGy_scaleRev_orientMir_180.png"" style= ""width:200px""alt=""img"">
                            </div>
                        </div>",0.375,"",0,"",NA,"","images/map15_RdGy_scaleRev_orientMir_180.png","sad",1,15,15,"RdGy","orientMir","scaleRev","180",NA,NA
"","","","","","html-slider-response",93,276718,"0.0-89.0","rol1bo6dju",79,NA,"<div style=""width:500px;"">
                            <p style=""font-size:50px; font-weight:bold;""
                            >sad</p>
                            <div style=""width:240px; margin: auto;"">
                                <img src=""images/map12_PuBu_scaleRev_orientMir_000.png"" style= ""width:200px""alt=""img"">
                            </div>
                        </div>",1,"",0,"",NA,"","images/map12_PuBu_scaleRev_orientMir_000.png","sad",1,12,12,"PuBu","orientMir","scaleRev","000",NA,NA
"","","","","","html-slider-response",94,278253,"0.0-90.0","rol1bo6dju",79,NA,"<div style=""width:500px;"">
                            <p style=""font-size:50px; font-weight:bold;""
                            >sad</p>
                            <div style=""width:240px; margin: auto;"">
                                <img src=""images/map27_turbo_scaleDef_orientMir_090.png"" style= ""width:200px""alt=""img"">
                            </div>
                        </div>",0.355,"",0,"",NA,"","images/map27_turbo_scaleDef_orientMir_090.png","sad",1,27,27,"turbo","orientMir","scaleDef","090",NA,NA
"","","","","","html-slider-response",95,279599,"0.0-91.0","rol1bo6dju",79,NA,"<div style=""width:500px;"">
                            <p style=""font-size:50px; font-weight:bold;""
                            >sad</p>
                            <div style=""width:240px; margin: auto;"">
                                <img src=""images/map05_Blues_scaleDef_orientMir_090.png"" style= ""width:200px""alt=""img"">
                            </div>
                        </div>",1,"",0,"",NA,"","images/map05_Blues_scaleDef_orientMir_090.png","sad",1,5,5,"Blues","orientMir","scaleDef","090",NA,NA
"","","","","","html-slider-response",96,281376,"0.0-92.0","rol1bo6dju",79,NA,"<div style=""width:500px;"">
                            <p style=""font-size:50px; font-weight:bold;""
                            >sad</p>
                            <div style=""width:240px; margin: auto;"">
                                <img src=""images/map07_Reds_scaleRev_orientMir_000.png"" style= ""width:200px""alt=""img"">
                            </div>
                        </div>",0.275,"",0,"",NA,"","images/map07_Reds_scaleRev_orientMir_000.png","sad",1,7,7,"Reds","orientMir","scaleRev","000",NA,NA
"","","","","","html-slider-response",97,283111,"0.0-93.0","rol1bo6dju",79,NA,"<div style=""width:500px;"">
                            <p style=""font-size:50px; font-weight:bold;""
                            >sad</p>
                            <div style=""width:240px; margin: auto;"">
                                <img src=""images/map05_Purples_scaleDef_orientDef_270.png"" style= ""width:200px""alt=""img"">
                            </div>
                        </div>",0.69,"",0,"",NA,"","images/map05_Purples_scaleDef_orientDef_270.png","sad",1,5,5,"Purples","orientDef","scaleDef","270",NA,NA
"","","","","","html-slider-response",98,284847,"0.0-94.0","rol1bo6dju",79,NA,"<div style=""width:500px;"">
                            <p style=""font-size:50px; font-weight:bold;""
                            >sad</p>
                            <div style=""width:240px; margin: auto;"">
                                <img src=""images/map05_Greens_scaleDef_orientMir_270.png"" style= ""width:200px""alt=""img"">
                            </div>
                        </div>",0.64,"",0,"",NA,"","images/map05_Greens_scaleDef_orientMir_270.png","sad",1,5,5,"Greens","orientMir","scaleDef","270",NA,NA
"","","","","","html-button-response",99,288073,"0.0-95.0","rol1bo6dju",79,2724,"<p>Great Job! You've finished block 1.<br></br> You have 4 block(s) left to go.<br></br></p>",0.5,"",NA,"",NA,"","","",NA,NA,NA,"","","","",NA,NA
"","","","","","html-button-response",100,289246,"0.0-96.0","rol1bo6dju",79,1172,"<p>In this block of trials, you will be asked to rate how much you associate each map with:</p > <p style = 'font-size:150%; font-weight: bold'>fearful</p><br></br>",0.5,"",NA,"",NA,"","","",NA,NA,NA,"","","","",NA,NA
"","","","","","html-slider-response",101,291439,"0.0-97.0","rol1bo6dju",79,NA,"<div style=""width:500px;"">
                            <p style=""font-size:50px; font-weight:bold;""
                            >fearful</p>
                            <div style=""width:240px; margin: auto;"">
                                <img src=""images/map02_inferno_scaleRev_orientMir_000.png"" style= ""width:200px""alt=""img"">
                            </div>
                        </div>",1,"",0,"",NA,"","images/map02_inferno_scaleRev_orientMir_000.png","fearful",1,2,2,"inferno","orientMir","scaleRev","000",NA,NA
"","","","","","html-slider-response",102,294463,"0.0-98.0","rol1bo6dju",79,NA,"<div style=""width:500px;"">
                            <p style=""font-size:50px; font-weight:bold;""
                            >fearful</p>
                            <div style=""width:240px; margin: auto;"">
                                <img src=""images/map13_YlGn_scaleDef_orientDef_270.png"" style= ""width:200px""alt=""img"">
                            </div>
                        </div>",0.215,"",0,"",NA,"","images/map13_YlGn_scaleDef_orientDef_270.png","fearful",1,13,13,"YlGn","orientDef","scaleDef","270",NA,NA
"","","","","","html-slider-response",103,296086,"0.0-99.0","rol1bo6dju",79,NA,"<div style=""width:500px;"">
                            <p style=""font-size:50px; font-weight:bold;""
                            >fearful</p>
                            <div style=""width:240px; margin: auto;"">
                                <img src=""images/map23_RdYlBu_scaleRev_orientDef_180.png"" style= ""width:200px""alt=""img"">
                            </div>
                        </div>",0.775,"",0,"",NA,"","images/map23_RdYlBu_scaleRev_orientDef_180.png","fearful",1,23,23,"RdYlBu","orientDef","scaleRev","180",NA,NA
"","","","","","html-slider-response",104,297828,"0.0-100.0","rol1bo6dju",79,NA,"<div style=""width:500px;"">
                            <p style=""font-size:50px; font-weight:bold;""
                            >fearful</p>
                            <div style=""width:240px; margin: auto;"">
                                <img src=""images/map26_seismic_scaleRev_orientMir_000.png"" style= ""width:200px""alt=""img"">
                            </div>
                        </div>",0.92,"",0,"",NA,"","images/map26_seismic_scaleRev_orientMir_000.png","fearful",1,26,26,"seismic","orientMir","scaleRev","000",NA,NA
"","","","","","html-slider-response",105,299729,"0.0-101.0","rol1bo6dju",79,NA,"<div style=""width:500px;"">
                            <p style=""font-size:50px; font-weight:bold;""
                            >fearful</p>
                            <div style=""width:240px; margin: auto;"">
                                <img src=""images/map27_vanimo_scaleRev_orientDef_180.png"" style= ""width:200px""alt=""img"">
                            </div>
                        </div>",1,"",0,"",NA,"","images/map27_vanimo_scaleRev_orientDef_180.png","fearful",1,27,27,"vanimo","orientDef","scaleRev","180",NA,NA
"","","","","","html-slider-response",106,301486,"0.0-102.0","rol1bo6dju",79,NA,"<div style=""width:500px;"">
                            <p style=""font-size:50px; font-weight:bold;""
                            >fearful</p>
                            <div style=""width:240px; margin: auto;"">
                                <img src=""images/map27_vanimo_scaleDef_orientDef_090.png"" style= ""width:200px""alt=""img"">
                            </div>
                        </div>",1,"",0,"",NA,"","images/map27_vanimo_scaleDef_orientDef_090.png","fearful",1,27,27,"vanimo","orientDef","scaleDef","090",NA,NA
"","","","","","html-slider-response",107,303968,"0.0-103.0","rol1bo6dju",79,NA,"<div style=""width:500px;"">
                            <p style=""font-size:50px; font-weight:bold;""
                            >fearful</p>
                            <div style=""width:240px; margin: auto;"">
                                <img src=""images/map05_Blues_scaleDef_orientMir_090.png"" style= ""width:200px""alt=""img"">
                            </div>
                        </div>",0,"",0,"",NA,"","images/map05_Blues_scaleDef_orientMir_090.png","fearful",1,5,5,"Blues","orientMir","scaleDef","090",NA,NA
"","","","","","html-slider-response",108,306286,"0.0-104.0","rol1bo6dju",79,NA,"<div style=""width:500px;"">
                            <p style=""font-size:50px; font-weight:bold;""
                            >fearful</p>
                            <div style=""width:240px; margin: auto;"">
                                <img src=""images/map13_BuGn_scaleRev_orientDef_180.png"" style= ""width:200px""alt=""img"">
                            </div>
                        </div>",0.195,"",0,"",NA,"","images/map13_BuGn_scaleRev_orientDef_180.png","fearful",1,13,13,"BuGn","orientDef","scaleRev","180",NA,NA
"","","","","","html-slider-response",109,307983,"0.0-105.0","rol1bo6dju",79,NA,"<div style=""width:500px;"">
                            <p style=""font-size:50px; font-weight:bold;""
                            >fearful</p>
                            <div style=""width:240px; margin: auto;"">
                                <img src=""images/map12_PuBu_scaleDef_orientDef_270.png"" style= ""width:200px""alt=""img"">
                            </div>
                        </div>",0,"",0,"",NA,"","images/map12_PuBu_scaleDef_orientDef_270.png","fearful",1,12,12,"PuBu","orientDef","scaleDef","270",NA,NA
"","","","","","html-slider-response",110,309653,"0.0-106.0","rol1bo6dju",79,NA,"<div style=""width:500px;"">
                            <p style=""font-size:50px; font-weight:bold;""
                            >fearful</p>
                            <div style=""width:240px; margin: auto;"">
                                <img src=""images/map26_bwr_scaleDef_orientDef_090.png"" style= ""width:200px""alt=""img"">
                            </div>
                        </div>",0.9075,"",0,"",NA,"","images/map26_bwr_scaleDef_orientDef_090.png","fearful",1,26,26,"bwr","orientDef","scaleDef","090",NA,NA
"","","","","","html-slider-response",111,311609,"0.0-107.0","rol1bo6dju",79,NA,"<div style=""width:500px;"">
                            <p style=""font-size:50px; font-weight:bold;""
                            >fearful</p>
                            <div style=""width:240px; margin: auto;"">
                                <img src=""images/map13_PiYG_scaleDef_orientMir_090.png"" style= ""width:200px""alt=""img"">
                            </div>
                        </div>",0.865,"",0,"",NA,"","images/map13_PiYG_scaleDef_orientMir_090.png","fearful",1,13,13,"PiYG","orientMir","scaleDef","090",NA,NA
"","","","","","html-slider-response",112,313135,"0.0-108.0","rol1bo6dju",79,NA,"<div style=""width:500px;"">
                            <p style=""font-size:50px; font-weight:bold;""
                            >fearful</p>
                            <div style=""width:240px; margin: auto;"">
                                <img src=""images/map26_bwr_scaleRev_orientDef_180.png"" style= ""width:200px""alt=""img"">
                            </div>
                        </div>",0.95,"",0,"",NA,"","images/map26_bwr_scaleRev_orientDef_180.png","fearful",1,26,26,"bwr","orientDef","scaleRev","180",NA,NA
"","","","","","html-slider-response",113,314697,"0.0-109.0","rol1bo6dju",79,NA,"<div style=""width:500px;"">
                            <p style=""font-size:50px; font-weight:bold;""
                            >fearful</p>
                            <div style=""width:240px; margin: auto;"">
                                <img src=""images/map10_PuRd_scaleRev_orientMir_000.png"" style= ""width:200px""alt=""img"">
                            </div>
                        </div>",0.64,"",0,"",NA,"","images/map10_PuRd_scaleRev_orientMir_000.png","fearful",1,10,10,"PuRd","orientMir","scaleRev","000",NA,NA
"","","","","","html-slider-response",114,316249,"0.0-110.0","rol1bo6dju",79,NA,"<div style=""width:500px;"">
                            <p style=""font-size:50px; font-weight:bold;""
                            >fearful</p>
                            <div style=""width:240px; margin: auto;"">
                                <img src=""images/map27_viridis_scaleDef_orientMir_270.png"" style= ""width:200px""alt=""img"">
                            </div>
                        </div>",0.5725,"",0,"",NA,"","images/map27_viridis_scaleDef_orientMir_270.png","fearful",1,27,27,"viridis","orientMir","scaleDef","270",NA,NA
"","","","","","html-slider-response",115,318666,"0.0-111.0","rol1bo6dju",79,NA,"<div style=""width:500px;"">
                            <p style=""font-size:50px; font-weight:bold;""
                            >fearful</p>
                            <div style=""width:240px; margin: auto;"">
                                <img src=""images/map10_OrRd_scaleDef_orientDef_090.png"" style= ""width:200px""alt=""img"">
                            </div>
                        </div>",1,"",0,"",NA,"","images/map10_OrRd_scaleDef_orientDef_090.png","fearful",1,10,10,"OrRd","orientDef","scaleDef","090",NA,NA
"","","","","","html-slider-response",116,320469,"0.0-112.0","rol1bo6dju",79,NA,"<div style=""width:500px;"">
                            <p style=""font-size:50px; font-weight:bold;""
                            >fearful</p>
                            <div style=""width:240px; margin: auto;"">
                                <img src=""images/map02_viridis_scaleRev_orientDef_000.png"" style= ""width:200px""alt=""img"">
                            </div>
                        </div>",0.3875,"",0,"",NA,"","images/map02_viridis_scaleRev_orientDef_000.png","fearful",1,2,2,"viridis","orientDef","scaleRev","000",NA,NA
"","","","","","html-slider-response",117,322318,"0.0-113.0","rol1bo6dju",79,NA,"<div style=""width:500px;"">
                            <p style=""font-size:50px; font-weight:bold;""
                            >fearful</p>
                            <div style=""width:240px; margin: auto;"">
                                <img src=""images/map05_Purples_scaleDef_orientDef_270.png"" style= ""width:200px""alt=""img"">
                            </div>
                        </div>",0.2625,"",0,"",NA,"","images/map05_Purples_scaleDef_orientDef_270.png","fearful",1,5,5,"Purples","orientDef","scaleDef","270",NA,NA
"","","","","","html-slider-response",118,323966,"0.0-114.0","rol1bo6dju",79,NA,"<div style=""width:500px;"">
                            <p style=""font-size:50px; font-weight:bold;""
                            >fearful</p>
                            <div style=""width:240px; margin: auto;"">
                                <img src=""images/map12_YlGnBu_scaleRev_orientMir_180.png"" style= ""width:200px""alt=""img"">
                            </div>
                        </div>",0.1825,"",0,"",NA,"","images/map12_YlGnBu_scaleRev_orientMir_180.png","fearful",1,12,12,"YlGnBu","orientMir","scaleRev","180",NA,NA
"","","","","","html-slider-response",119,325894,"0.0-115.0","rol1bo6dju",79,NA,"<div style=""width:500px;"">
                            <p style=""font-size:50px; font-weight:bold;""
                            >fearful</p>
                            <div style=""width:240px; margin: auto;"">
                                <img src=""images/map23_Spectral_scaleDef_orientMir_090.png"" style= ""width:200px""alt=""img"">
                            </div>
                        </div>",0.185,"",0,"",NA,"","images/map23_Spectral_scaleDef_orientMir_090.png","fearful",1,23,23,"Spectral","orientMir","scaleDef","090",NA,NA
"","","","","","html-slider-response",120,327000,"0.0-116.0","rol1bo6dju",79,NA,"<div style=""width:500px;"">
                            <p style=""font-size:50px; font-weight:bold;""
                            >fearful</p>
                            <div style=""width:240px; margin: auto;"">
                                <img src=""images/map26_managua_scaleDef_orientMir_270.png"" style= ""width:200px""alt=""img"">
                            </div>
                        </div>",0.6525,"",0,"",NA,"","images/map26_managua_scaleDef_orientMir_270.png","fearful",1,26,26,"managua","orientMir","scaleDef","270",NA,NA
"","","","","","html-slider-response",121,328575,"0.0-117.0","rol1bo6dju",79,NA,"<div style=""width:500px;"">
                            <p style=""font-size:50px; font-weight:bold;""
                            >fearful</p>
                            <div style=""width:240px; margin: auto;"">
                                <img src=""images/map05_Purples_scaleRev_orientMir_000.png"" style= ""width:200px""alt=""img"">
                            </div>
                        </div>",0.375,"",0,"",NA,"","images/map05_Purples_scaleRev_orientMir_000.png","fearful",1,5,5,"Purples","orientMir","scaleRev","000",NA,NA
"","","","","","html-slider-response",122,329958,"0.0-118.0","rol1bo6dju",79,NA,"<div style=""width:500px;"">
                            <p style=""font-size:50px; font-weight:bold;""
                            >fearful</p>
                            <div style=""width:240px; margin: auto;"">
                                <img src=""images/map07_Reds_scaleDef_orientDef_270.png"" style= ""width:200px""alt=""img"">
                            </div>
                        </div>",0.87,"",0,"",NA,"","images/map07_Reds_scaleDef_orientDef_270.png","fearful",1,7,7,"Reds","orientDef","scaleDef","270",NA,NA
"","","","","","html-slider-response",123,331505,"0.0-119.0","rol1bo6dju",79,NA,"<div style=""width:500px;"">
                            <p style=""font-size:50px; font-weight:bold;""
                            >fearful</p>
                            <div style=""width:240px; margin: auto;"">
                                <img src=""images/map27_turbo_scaleDef_orientMir_090.png"" style= ""width:200px""alt=""img"">
                            </div>
                        </div>",0.76,"",0,"",NA,"","images/map27_turbo_scaleDef_orientMir_090.png","fearful",1,27,27,"turbo","orientMir","scaleDef","090",NA,NA
"","","","","","html-slider-response",124,333070,"0.0-120.0","rol1bo6dju",79,NA,"<div style=""width:500px;"">
                            <p style=""font-size:50px; font-weight:bold;""
                            >fearful</p>
                            <div style=""width:240px; margin: auto;"">
                                <img src=""images/map27_gist_earth_scaleDef_orientDef_270.png"" style= ""width:200px""alt=""img"">
                            </div>
                        </div>",0.3425,"",0,"",NA,"","images/map27_gist_earth_scaleDef_orientDef_270.png","fearful",1,27,27,"gist","scaleDef","earth","orientDef",NA,NA
"","","","","","html-slider-response",125,334815,"0.0-121.0","rol1bo6dju",79,NA,"<div style=""width:500px;"">
                            <p style=""font-size:50px; font-weight:bold;""
                            >fearful</p>
                            <div style=""width:240px; margin: auto;"">
                                <img src=""images/map26_seismic_scaleDef_orientDef_270.png"" style= ""width:200px""alt=""img"">
                            </div>
                        </div>",1,"",0,"",NA,"","images/map26_seismic_scaleDef_orientDef_270.png","fearful",1,26,26,"seismic","orientDef","scaleDef","270",NA,NA
"","","","","","html-slider-response",126,336621,"0.0-122.0","rol1bo6dju",79,NA,"<div style=""width:500px;"">
                            <p style=""font-size:50px; font-weight:bold;""
                            >fearful</p>
                            <div style=""width:240px; margin: auto;"">
                                <img src=""images/map13_PRGn_scaleDef_orientMir_270.png"" style= ""width:200px""alt=""img"">
                            </div>
                        </div>",0.84,"",0,"",NA,"","images/map13_PRGn_scaleDef_orientMir_270.png","fearful",1,13,13,"PRGn","orientMir","scaleDef","270",NA,NA
"","","","","","html-slider-response",127,338350,"0.0-123.0","rol1bo6dju",79,NA,"<div style=""width:500px;"">
                            <p style=""font-size:50px; font-weight:bold;""
                            >fearful</p>
                            <div style=""width:240px; margin: auto;"">
                                <img src=""images/map07_Oranges_scaleRev_orientDef_180.png"" style= ""width:200px""alt=""img"">
                            </div>
                        </div>",0.4525,"",0,"",NA,"","images/map07_Oranges_scaleRev_orientDef_180.png","fearful",1,7,7,"Oranges","orientDef","scaleRev","180",NA,NA
"","","","","","html-slider-response",128,340449,"0.0-124.0","rol1bo6dju",79,NA,"<div style=""width:500px;"">
                            <p style=""font-size:50px; font-weight:bold;""
                            >fearful</p>
                            <div style=""width:240px; margin: auto;"">
                                <img src=""images/map12_PuBu_scaleRev_orientMir_000.png"" style= ""width:200px""alt=""img"">
                            </div>
                        </div>",0.2275,"",0,"",NA,"","images/map12_PuBu_scaleRev_orientMir_000.png","fearful",1,12,12,"PuBu","orientMir","scaleRev","000",NA,NA
"","","","","","html-slider-response",129,341841,"0.0-125.0","rol1bo6dju",79,NA,"<div style=""width:500px;"">
                            <p style=""font-size:50px; font-weight:bold;""
                            >fearful</p>
                            <div style=""width:240px; margin: auto;"">
                                <img src=""images/map23_RdBu_scaleRev_orientDef_000.png"" style= ""width:200px""alt=""img"">
                            </div>
                        </div>",0.715,"",0,"",NA,"","images/map23_RdBu_scaleRev_orientDef_000.png","fearful",1,23,23,"RdBu","orientDef","scaleRev","000",NA,NA
"","","","","","html-slider-response",130,342483,"0.0-126.0","rol1bo6dju",79,NA,"<div style=""width:500px;"">
                            <p style=""font-size:50px; font-weight:bold;""
                            >fearful</p>
                            <div style=""width:240px; margin: auto;"">
                                <img src=""images/map27_managua_scaleRev_orientDef_000.png"" style= ""width:200px""alt=""img"">
                            </div>
                        </div>",0.3525,"",0,"",NA,"","images/map27_managua_scaleRev_orientDef_000.png","fearful",1,27,27,"managua","orientDef","scaleRev","000",NA,NA
"","","","","","html-slider-response",131,343534,"0.0-127.0","rol1bo6dju",79,NA,"<div style=""width:500px;"">
                            <p style=""font-size:50px; font-weight:bold;""
                            >fearful</p>
                            <div style=""width:240px; margin: auto;"">
                                <img src=""images/map15_BrBG_scaleDef_orientDef_090.png"" style= ""width:200px""alt=""img"">
                            </div>
                        </div>",0.635,"",0,"",NA,"","images/map15_BrBG_scaleDef_orientDef_090.png","fearful",1,15,15,"BrBG","orientDef","scaleDef","090",NA,NA
"","","","","","html-slider-response",132,344925,"0.0-128.0","rol1bo6dju",79,NA,"<div style=""width:500px;"">
                            <p style=""font-size:50px; font-weight:bold;""
                            >fearful</p>
                            <div style=""width:240px; margin: auto;"">
                                <img src=""images/map13_YlGn_scaleRev_orientMir_000.png"" style= ""width:200px""alt=""img"">
                            </div>
                        </div>",0.285,"",0,"",NA,"","images/map13_YlGn_scaleRev_orientMir_000.png","fearful",1,13,13,"YlGn","orientMir","scaleRev","000",NA,NA
"","","","","","html-slider-response",133,346828,"0.0-129.0","rol1bo6dju",79,NA,"<div style=""width:500px;"">
                            <p style=""font-size:50px; font-weight:bold;""
                            >fearful</p>
                            <div style=""width:240px; margin: auto;"">
                                <img src=""images/map02_magma_scaleDef_orientMir_090.png"" style= ""width:200px""alt=""img"">
                            </div>
                        </div>",1,"",0,"",NA,"","images/map02_magma_scaleDef_orientMir_090.png","fearful",1,2,2,"magma","orientMir","scaleDef","090",NA,NA
"","","","","","html-slider-response",134,348633,"0.0-130.0","rol1bo6dju",79,NA,"<div style=""width:500px;"">
                            <p style=""font-size:50px; font-weight:bold;""
                            >fearful</p>
                            <div style=""width:240px; margin: auto;"">
                                <img src=""images/map26_berlin_scaleDef_orientMir_090.png"" style= ""width:200px""alt=""img"">
                            </div>
                        </div>",1,"",0,"",NA,"","images/map26_berlin_scaleDef_orientMir_090.png","fearful",1,26,26,"berlin","orientMir","scaleDef","090",NA,NA
"","","","","","html-slider-response",135,350516,"0.0-131.0","rol1bo6dju",79,NA,"<div style=""width:500px;"">
                            <p style=""font-size:50px; font-weight:bold;""
                            >fearful</p>
                            <div style=""width:240px; margin: auto;"">
                                <img src=""images/map10_BuPu_scaleDef_orientMir_270.png"" style= ""width:200px""alt=""img"">
                            </div>
                        </div>",1,"",0,"",NA,"","images/map10_BuPu_scaleDef_orientMir_270.png","fearful",1,10,10,"BuPu","orientMir","scaleDef","270",NA,NA
"","","","","","html-slider-response",136,351931,"0.0-132.0","rol1bo6dju",79,NA,"<div style=""width:500px;"">
                            <p style=""font-size:50px; font-weight:bold;""
                            >fearful</p>
                            <div style=""width:240px; margin: auto;"">
                                <img src=""images/map12_PuBuGn_scaleDef_orientMir_270.png"" style= ""width:200px""alt=""img"">
                            </div>
                        </div>",0.285,"",0,"",NA,"","images/map12_PuBuGn_scaleDef_orientMir_270.png","fearful",1,12,12,"PuBuGn","orientMir","scaleDef","270",NA,NA
"","","","","","html-slider-response",137,353181,"0.0-133.0","rol1bo6dju",79,NA,"<div style=""width:500px;"">
                            <p style=""font-size:50px; font-weight:bold;""
                            >fearful</p>
                            <div style=""width:240px; margin: auto;"">
                                <img src=""images/map02_plasma_scaleRev_orientDef_180.png"" style= ""width:200px""alt=""img"">
                            </div>
                        </div>",0.8025,"",0,"",NA,"","images/map02_plasma_scaleRev_orientDef_180.png","fearful",1,2,2,"plasma","orientDef","scaleRev","180",NA,NA
"","","","","","html-slider-response",138,354475,"0.0-134.0","rol1bo6dju",79,NA,"<div style=""width:500px;"">
                            <p style=""font-size:50px; font-weight:bold;""
                            >fearful</p>
                            <div style=""width:240px; margin: auto;"">
                                <img src=""images/map07_YlOrRd_scaleDef_orientMir_270.png"" style= ""width:200px""alt=""img"">
                            </div>
                        </div>",0.3125,"",0,"",NA,"","images/map07_YlOrRd_scaleDef_orientMir_270.png","fearful",1,7,7,"YlOrRd","orientMir","scaleDef","270",NA,NA
"","","","","","html-slider-response",139,355713,"0.0-135.0","rol1bo6dju",79,NA,"<div style=""width:500px;"">
                            <p style=""font-size:50px; font-weight:bold;""
                            >fearful</p>
                            <div style=""width:240px; margin: auto;"">
                                <img src=""images/map10_PuRd_scaleDef_orientDef_270.png"" style= ""width:200px""alt=""img"">
                            </div>
                        </div>",0.7,"",0,"",NA,"","images/map10_PuRd_scaleDef_orientDef_270.png","fearful",1,10,10,"PuRd","orientDef","scaleDef","270",NA,NA
"","","","","","html-slider-response",140,356913,"0.0-136.0","rol1bo6dju",79,NA,"<div style=""width:500px;"">
                            <p style=""font-size:50px; font-weight:bold;""
                            >fearful</p>
                            <div style=""width:240px; margin: auto;"">
                                <img src=""images/map12_BuPu_scaleRev_orientDef_000.png"" style= ""width:200px""alt=""img"">
                            </div>
                        </div>",0.74,"",0,"",NA,"","images/map12_BuPu_scaleRev_orientDef_000.png","fearful",1,12,12,"BuPu","orientDef","scaleRev","000",NA,NA
"","","","","","html-button-response",141,358784,"0.0-137.0","rol1bo6dju",79,1364,"<p>You are doing great!<br></br> You are halway done with the current block. When you are ready to continue, click the 'Continue' button.</p>",0.5,"",NA,"",NA,"","","",NA,NA,NA,"","","","",NA,NA
"","","","","","html-slider-response",142,361448,"0.0-138.0","rol1bo6dju",79,NA,"<div style=""width:500px;"">
                            <p style=""font-size:50px; font-weight:bold;""
                            >fearful</p>
                            <div style=""width:240px; margin: auto;"">
                                <img src=""images/map13_PuBuGn_scaleRev_orientDef_000.png"" style= ""width:200px""alt=""img"">
                            </div>
                        </div>",0,"",0,"",NA,"","images/map13_PuBuGn_scaleRev_orientDef_000.png","fearful",1,13,13,"PuBuGn","orientDef","scaleRev","000",NA,NA
"","","","","","html-slider-response",143,363191,"0.0-139.0","rol1bo6dju",79,NA,"<div style=""width:500px;"">
                            <p style=""font-size:50px; font-weight:bold;""
                            >fearful</p>
                            <div style=""width:240px; margin: auto;"">
                                <img src=""images/map07_Greens_scaleRev_orientDef_000.png"" style= ""width:200px""alt=""img"">
                            </div>
                        </div>",0.3275,"",0,"",NA,"","images/map07_Greens_scaleRev_orientDef_000.png","fearful",1,7,7,"Greens","orientDef","scaleRev","000",NA,NA
"","","","","","html-slider-response",144,366041,"0.0-140.0","rol1bo6dju",79,NA,"<div style=""width:500px;"">
                            <p style=""font-size:50px; font-weight:bold;""
                            >fearful</p>
                            <div style=""width:240px; margin: auto;"">
                                <img src=""images/map15_RdGy_scaleRev_orientMir_180.png"" style= ""width:200px""alt=""img"">
                            </div>
                        </div>",0.82,"",0,"",NA,"","images/map15_RdGy_scaleRev_orientMir_180.png","fearful",1,15,15,"RdGy","orientMir","scaleRev","180",NA,NA
"","","","","","html-slider-response",145,367892,"0.0-141.0","rol1bo6dju",79,NA,"<div style=""width:500px;"">
                            <p style=""font-size:50px; font-weight:bold;""
                            >fearful</p>
                            <div style=""width:240px; margin: auto;"">
                                <img src=""images/map07_YlOrBr_scaleRev_orientMir_180.png"" style= ""width:200px""alt=""img"">
                            </div>
                        </div>",0.32,"",0,"",NA,"","images/map07_YlOrBr_scaleRev_orientMir_180.png","fearful",1,7,7,"YlOrBr","orientMir","scaleRev","180",NA,NA
"","","","","","html-slider-response",146,409859,"0.0-142.0","rol1bo6dju",79,NA,"<div style=""width:500px;"">
                            <p style=""font-size:50px; font-weight:bold;""
                            >fearful</p>
                            <div style=""width:240px; margin: auto;"">
                                <img src=""images/map15_RdGy_scaleDef_orientMir_090.png"" style= ""width:200px""alt=""img"">
                            </div>
                        </div>",0.965,"",0,"",NA,"","images/map15_RdGy_scaleDef_orientMir_090.png","fearful",1,15,15,"RdGy","orientMir","scaleDef","090",NA,NA
"","","","","","html-slider-response",147,411759,"0.0-143.0","rol1bo6dju",79,NA,"<div style=""width:500px;"">
                            <p style=""font-size:50px; font-weight:bold;""
                            >fearful</p>
                            <div style=""width:240px; margin: auto;"">
                                <img src=""images/map10_OrRd_scaleRev_orientDef_180.png"" style= ""width:200px""alt=""img"">
                            </div>
                        </div>",0.74,"",0,"",NA,"","images/map10_OrRd_scaleRev_orientDef_180.png","fearful",1,10,10,"OrRd","orientDef","scaleRev","180",NA,NA
"","","","","","html-slider-response",148,413824,"0.0-144.0","rol1bo6dju",79,NA,"<div style=""width:500px;"">
                            <p style=""font-size:50px; font-weight:bold;""
                            >fearful</p>
                            <div style=""width:240px; margin: auto;"">
                                <img src=""images/map10_RdPu_scaleDef_orientMir_090.png"" style= ""width:200px""alt=""img"">
                            </div>
                        </div>",0.01,"",0,"",NA,"","images/map10_RdPu_scaleDef_orientMir_090.png","fearful",1,10,10,"RdPu","orientMir","scaleDef","090",NA,NA
"","","","","","html-slider-response",149,415389,"0.0-145.0","rol1bo6dju",79,NA,"<div style=""width:500px;"">
                            <p style=""font-size:50px; font-weight:bold;""
                            >fearful</p>
                            <div style=""width:240px; margin: auto;"">
                                <img src=""images/map05_Greens_scaleDef_orientMir_270.png"" style= ""width:200px""alt=""img"">
                            </div>
                        </div>",0.185,"",0,"",NA,"","images/map05_Greens_scaleDef_orientMir_270.png","fearful",1,5,5,"Greens","orientMir","scaleDef","270",NA,NA
"","","","","","html-slider-response",150,416564,"0.0-146.0","rol1bo6dju",79,NA,"<div style=""width:500px;"">
                            <p style=""font-size:50px; font-weight:bold;""
                            >fearful</p>
                            <div style=""width:240px; margin: auto;"">
                                <img src=""images/map07_Reds_scaleRev_orientMir_000.png"" style= ""width:200px""alt=""img"">
                            </div>
                        </div>",0.735,"",0,"",NA,"","images/map07_Reds_scaleRev_orientMir_000.png","fearful",1,7,7,"Reds","orientMir","scaleRev","000",NA,NA
"","","","","","html-slider-response",151,417770,"0.0-147.0","rol1bo6dju",79,NA,"<div style=""width:500px;"">
                            <p style=""font-size:50px; font-weight:bold;""
                            >fearful</p>
                            <div style=""width:240px; margin: auto;"">
                                <img src=""images/map23_RdYlGn_scaleRev_orientMir_000.png"" style= ""width:200px""alt=""img"">
                            </div>
                        </div>",0.7475,"",0,"",NA,"","images/map23_RdYlGn_scaleRev_orientMir_000.png","fearful",1,23,23,"RdYlGn","orientMir","scaleRev","000",NA,NA
"","","","","","html-slider-response",152,419881,"0.0-148.0","rol1bo6dju",79,NA,"<div style=""width:500px;"">
                            <p style=""font-size:50px; font-weight:bold;""
                            >fearful</p>
                            <div style=""width:240px; margin: auto;"">
                                <img src=""images/map02_magma_scaleRev_orientMir_180.png"" style= ""width:200px""alt=""img"">
                            </div>
                        </div>",1,"",0,"",NA,"","images/map02_magma_scaleRev_orientMir_180.png","fearful",1,2,2,"magma","orientMir","scaleRev","180",NA,NA
"","","","","","html-slider-response",153,421295,"0.0-149.0","rol1bo6dju",79,NA,"<div style=""width:500px;"">
                            <p style=""font-size:50px; font-weight:bold;""
                            >fearful</p>
                            <div style=""width:240px; margin: auto;"">
                                <img src=""images/map13_PiYG_scaleRev_orientMir_180.png"" style= ""width:200px""alt=""img"">
                            </div>
                        </div>",0.6525,"",0,"",NA,"","images/map13_PiYG_scaleRev_orientMir_180.png","fearful",1,13,13,"PiYG","orientMir","scaleRev","180",NA,NA
"","","","","","html-slider-response",154,422553,"0.0-150.0","rol1bo6dju",79,NA,"<div style=""width:500px;"">
                            <p style=""font-size:50px; font-weight:bold;""
                            >fearful</p>
                            <div style=""width:240px; margin: auto;"">
                                <img src=""images/map15_PuOr_scaleRev_orientMir_000.png"" style= ""width:200px""alt=""img"">
                            </div>
                        </div>",0.6275,"",0,"",NA,"","images/map15_PuOr_scaleRev_orientMir_000.png","fearful",1,15,15,"PuOr","orientMir","scaleRev","000",NA,NA
"","","","","","html-slider-response",155,424218,"0.0-151.0","rol1bo6dju",79,NA,"<div style=""width:500px;"">
                            <p style=""font-size:50px; font-weight:bold;""
                            >fearful</p>
                            <div style=""width:240px; margin: auto;"">
                                <img src=""images/map02_cividis_scaleDef_orientMir_270.png"" style= ""width:200px""alt=""img"">
                            </div>
                        </div>",0.425,"",0,"",NA,"","images/map02_cividis_scaleDef_orientMir_270.png","fearful",1,2,2,"cividis","orientMir","scaleDef","270",NA,NA
"","","","","","html-slider-response",156,425839,"0.0-152.0","rol1bo6dju",79,NA,"<div style=""width:500px;"">
                            <p style=""font-size:50px; font-weight:bold;""
                            >fearful</p>
                            <div style=""width:240px; margin: auto;"">
                                <img src=""images/map12_GnBu_scaleRev_orientDef_180.png"" style= ""width:200px""alt=""img"">
                            </div>
                        </div>",0.1,"",0,"",NA,"","images/map12_GnBu_scaleRev_orientDef_180.png","fearful",1,12,12,"GnBu","orientDef","scaleRev","180",NA,NA
"","","","","","html-slider-response",157,427328,"0.0-153.0","rol1bo6dju",79,NA,"<div style=""width:500px;"">
                            <p style=""font-size:50px; font-weight:bold;""
                            >fearful</p>
                            <div style=""width:240px; margin: auto;"">
                                <img src=""images/map26_berlin_scaleRev_orientMir_180.png"" style= ""width:200px""alt=""img"">
                            </div>
                        </div>",0.7,"",0,"",NA,"","images/map26_berlin_scaleRev_orientMir_180.png","fearful",1,26,26,"berlin","orientMir","scaleRev","180",NA,NA
"","","","","","html-slider-response",158,428508,"0.0-154.0","rol1bo6dju",79,NA,"<div style=""width:500px;"">
                            <p style=""font-size:50px; font-weight:bold;""
                            >fearful</p>
                            <div style=""width:240px; margin: auto;"">
                                <img src=""images/map23_RdYlBu_scaleDef_orientDef_090.png"" style= ""width:200px""alt=""img"">
                            </div>
                        </div>",0.7925,"",0,"",NA,"","images/map23_RdYlBu_scaleDef_orientDef_090.png","fearful",1,23,23,"RdYlBu","orientDef","scaleDef","090",NA,NA
"","","","","","html-slider-response",159,430325,"0.0-155.0","rol1bo6dju",79,NA,"<div style=""width:500px;"">
                            <p style=""font-size:50px; font-weight:bold;""
                            >fearful</p>
                            <div style=""width:240px; margin: auto;"">
                                <img src=""images/map23_RdYlGn_scaleDef_orientDef_270.png"" style= ""width:200px""alt=""img"">
                            </div>
                        </div>",0.42,"",0,"",NA,"","images/map23_RdYlGn_scaleDef_orientDef_270.png","fearful",1,23,23,"RdYlGn","orientDef","scaleDef","270",NA,NA
"","","","","","html-slider-response",160,431833,"0.0-156.0","rol1bo6dju",79,NA,"<div style=""width:500px;"">
                            <p style=""font-size:50px; font-weight:bold;""
                            >fearful</p>
                            <div style=""width:240px; margin: auto;"">
                                <img src=""images/map05_Greys_scaleDef_orientDef_090.png"" style= ""width:200px""alt=""img"">
                            </div>
                        </div>",0.4175,"",0,"",NA,"","images/map05_Greys_scaleDef_orientDef_090.png","fearful",1,5,5,"Greys","orientDef","scaleDef","090",NA,NA
"","","","","","html-slider-response",161,433659,"0.0-157.0","rol1bo6dju",79,NA,"<div style=""width:500px;"">
                            <p style=""font-size:50px; font-weight:bold;""
                            >fearful</p>
                            <div style=""width:240px; margin: auto;"">
                                <img src=""images/map10_YlOrRd_scaleRev_orientDef_000.png"" style= ""width:200px""alt=""img"">
                            </div>
                        </div>",0.9225,"",0,"",NA,"","images/map10_YlOrRd_scaleRev_orientDef_000.png","fearful",1,10,10,"YlOrRd","orientDef","scaleRev","000",NA,NA
"","","","","","html-slider-response",162,435160,"0.0-158.0","rol1bo6dju",79,NA,"<div style=""width:500px;"">
                            <p style=""font-size:50px; font-weight:bold;""
                            >fearful</p>
                            <div style=""width:240px; margin: auto;"">
                                <img src=""images/map07_Oranges_scaleDef_orientDef_090.png"" style= ""width:200px""alt=""img"">
                            </div>
                        </div>",0.775,"",0,"",NA,"","images/map07_Oranges_scaleDef_orientDef_090.png","fearful",1,7,7,"Oranges","orientDef","scaleDef","090",NA,NA
"","","","","","html-slider-response",163,436446,"0.0-159.0","rol1bo6dju",79,NA,"<div style=""width:500px;"">
