"success","timeout","failed_images","failed_audio","failed_video","trial_type","trial_index","time_elapsed","internal_node_id","subject_id","condition_num","rt","stimulus","response","question_order","slider_start","practiceTrial","practiceTrialNum","correct","image_path","concept","repetition","map_id","map_num","scale_name","orientation_code","mapping_code","rotation_code","ishihara_plate","correct_response"
"true","false","[]","[]","[]","preload",0,415,"0.0-0.0","3orduz4cxy",53,NA,"",NA,"",NA,"",NA,"","","",NA,NA,NA,"","","","",NA,NA
"","","","","","html-button-response",1,2201,"0.0-1.0","3orduz4cxy",53,1783,"Welcome to our experiment!<p>At the bottom of this screen, you will see a button that says ""Begin Experiment"".<br>Please only click that button when you are ready to complete the 30 minute experiment in one sitting.</p><p> Once you click that button, it will not be possible to restart the experiment.",0.5,"",NA,"",NA,"","","",NA,NA,NA,"","","","",NA,NA
"true","","","","","fullscreen",2,4094,"0.0-2.0","3orduz4cxy",53,869,"",NA,"",NA,"",NA,"","","",NA,NA,NA,"","","","",NA,NA
"","","","","","survey-multi-select",3,17505,"0.0-3.0","3orduz4cxy",53,13402,"",NA,"[0]",NA,"",NA,"","","",NA,NA,NA,"","","","",NA,NA
"","","","","","html-button-response",4,18406,"0.0-4.0","3orduz4cxy",53,899,"Welcome! <p> This experiment involves two parts: demographic information, followed by the experimental task.<p> It will take about 30 minutes to complete both parts.",0.5,"",NA,"",NA,"","","",NA,NA,NA,"","","","",NA,NA
"","","","","","survey-text",5,32741,"0.0-5.0","3orduz4cxy",53,14308,"",NA,"",NA,"",NA,"","","",NA,NA,NA,"","","","",NA,NA
"","","","","","html-slider-response",6,68569,"0.0-6.0","3orduz4cxy",53,35822,"<div style='text-align:left; font-size:20px; line-height:25px; width: 1000px;'>
                                During this experiment you will be asked to rate how much you associate maps with                    different concepts.<br> Below, you can see some examples of the maps you will be asked to rate. Above the maps
                    is the list of concepts.<br>You will be asked                    to rate how much you associate each map with each concept on a scale from 'not at all' to 'very much' like the
                    one below. <br><br>
                    Now, please look at the list of concepts and maps. For each concept, think about the map you associate 'very
                    much' with the concept.<br>                     When you see that map during the experiment, please rate it near the 'very much' endpoint of the
                    scale.<br>Now, please think about which map you associate 'not at all'                     with each concept. When you see that map during the experiment, please rate it near the 'not at all' endpoint
                    of the scale.<br>
                    Please use the full range of the scale. That is, if a map is somewhat associated with the concept, you would
                    click partway between the middle point and right side of the scale.                    You will be asked to rate each map for a given concept before moving on to the next concept.<br>Press the
                    'Continue' button for instructions on how to use the slider.                    <br>
                </div>

                <div style=""width: 500px; margin: 0 auto;"">
                    <!-- Centered text paragraphs -->
                    <div style=""text-align: center; width: 500px;"">
                        <p style=""font-size:25px; line-height:15px;"">
                            disgust&nbsp;&nbsp;&nbsp;&nbsp;
                            fearful&nbsp;&nbsp;&nbsp;&nbsp;
                            angry&nbsp;&nbsp;&nbsp;&nbsp;
                            happy&nbsp;&nbsp;&nbsp;&nbsp;
                            sad
                        </p>
                        <!-- <p style=""font-size:20px; line-height:15px;"">fearful</p>
                        <p style=""font-size:20px;line-height:15px;"">angry</p>
                        <p style=""font-size:20px;line-height:15px;"">happy</p>
                        <p style=""font-size:20px;line-height:15px;"">sad</p> -->
                    </div>
            

                    <!-- Grid section -->
                   <div style=""display: flex; justify-content: center; padding-top: 15px;"">
                    <div style=""display: grid; grid-template-columns: repeat(10, 55px); grid-gap: 5px; width: auto;"">
                        <img src=""images/map23_magma_scaleDef_orientDef_270.png"" alt=""map"" style=""width: 100%;""><img src=""images/map12_coolwarm_scaleRev_orientMir_180.png"" alt=""map"" style=""width: 100%;""><img src=""images/map13_seismic_scaleDef_orientDef_090.png"" alt=""map"" style=""width: 100%;""><img src=""images/map05_PuBu_scaleRev_orientDef_180.png"" alt=""map"" style=""width: 100%;""><img src=""images/map27_OrRd_scaleDef_orientMir_270.png"" alt=""map"" style=""width: 100%;""><img src=""images/map23_inferno_scaleDef_orientDef_090.png"" alt=""map"" style=""width: 100%;""><img src=""images/map07_PRGn_scaleRev_orientMir_180.png"" alt=""map"" style=""width: 100%;""><img src=""images/map27_Reds_scaleRev_orientDef_180.png"" alt=""map"" style=""width: 100%;""><img src=""images/map07_PiYG_scaleRev_orientMir_000.png"" alt=""map"" style=""width: 100%;""><img src=""images/map12_RdYlGn_scaleRev_orientDef_180.png"" alt=""map"" style=""width: 100%;""><img src=""images/map02_PuRd_scaleDef_orientDef_090.png"" alt=""map"" style=""width: 100%;""><img src=""images/map10_RdBu_scaleRev_orientMir_180.png"" alt=""map"" style=""width: 100%;""><img src=""images/map13_managua_scaleDef_orientMir_090.png"" alt=""map"" style=""width: 100%;""><img src=""images/map05_PuBuGn_scaleDef_orientMir_090.png"" alt=""map"" style=""width: 100%;""><img src=""images/map02_RdPu_scaleRev_orientMir_000.png"" alt=""map"" style=""width: 100%;""><img src=""images/map27_YlOrRd_scaleDef_orientMir_090.png"" alt=""map"" style=""width: 100%;""><img src=""images/map12_Spectral_scaleDef_orientDef_270.png"" alt=""map"" style=""width: 100%;""><img src=""images/map05_BuGn_scaleDef_orientMir_270.png"" alt=""map"" style=""width: 100%;""><img src=""images/map26_Blues_scaleRev_orientMir_000.png"" alt=""map"" style=""width: 100%;""><img src=""images/map15_plasma_scaleDef_orientMir_270.png"" alt=""map"" style=""width: 100%;""><img src=""images/map12_bwr_scaleDef_orientMir_270.png"" alt=""map"" style=""width: 100%;""><img src=""images/map07_YlGn_scaleRev_orientDef_180.png"" alt=""map"" style=""width: 100%;""><img src=""images/map10_BrBG_scaleRev_orientDef_000.png"" alt=""map"" style=""width: 100%;""><img src=""images/map26_Purples_scaleDef_orientDef_090.png"" alt=""map"" style=""width: 100%;""><img src=""images/map15_gist_earth_scaleDef_orientDef_090.png"" alt=""map"" style=""width: 100%;""><img src=""images/map02_BuPu_scaleRev_orientMir_180.png"" alt=""map"" style=""width: 100%;""><img src=""images/map26_Greens_scaleRev_orientMir_180.png"" alt=""map"" style=""width: 100%;""><img src=""images/map27_Oranges_scaleRev_orientDef_000.png"" alt=""map"" style=""width: 100%;""><img src=""images/map15_vanimo_scaleRev_orientDef_000.png"" alt=""map"" style=""width: 100%;""><img src=""images/map23_cividis_scaleRev_orientMir_180.png"" alt=""map"" style=""width: 100%;""><img src=""images/map10_PuOr_scaleRev_orientDef_180.png"" alt=""map"" style=""width: 100%;""><img src=""images/map27_YlOrBr_scaleRev_orientMir_000.png"" alt=""map"" style=""width: 100%;""><img src=""images/map15_viridis_scaleDef_orientMir_090.png"" alt=""map"" style=""width: 100%;""><img src=""images/map12_RdYlBu_scaleRev_orientDef_000.png"" alt=""map"" style=""width: 100%;""><img src=""images/map13_berlin_scaleDef_orientDef_270.png"" alt=""map"" style=""width: 100%;""><img src=""images/map05_GnBu_scaleRev_orientDef_000.png"" alt=""map"" style=""width: 100%;""><img src=""images/map10_RdGy_scaleDef_orientDef_270.png"" alt=""map"" style=""width: 100%;""><img src=""images/map26_Greys_scaleRev_orientDef_000.png"" alt=""map"" style=""width: 100%;""><img src=""images/map05_YlGnBu_scaleDef_orientDef_270.png"" alt=""map"" style=""width: 100%;""><img src=""images/map15_turbo_scaleRev_orientMir_000.png"" alt=""map"" style=""width: 100%;"">
                    </div>
                </div>

                    <!-- Clear floats -->
                    <div style=""clear: both;""></div>
                </div>
                            ",0.64,"",0,"true",NA,"","","",NA,NA,NA,"","","","",NA,NA
"","","","","","html-button-response",7,74755,"0.0-7.0","3orduz4cxy",53,6184,"<div style=""width:800px;""><p style=""text-align:left"">To move the slider, click and drag your cursor to the location of the scale where you would like to make your rating and then let go. When you let go of the slider, your response will be recorded and the next trial will begin. <br>
                    We are interested in your initial impressions of each map for the given concept, so please go with your first intuition. <br>
                    Before you begin the experiment, there will be four training trials for you to practice using the scale. <br>
                     When you are ready to start the training trials, please click ""Continue"".</p><br></div>",0.5,"",NA,"",NA,"","","",NA,NA,NA,"","","","",NA,NA
"","","","","","html-slider-response",8,77588,"0.0-8.0-0.0","3orduz4cxy",53,NA,"<div style=""width:500px;"">
                                    <p style=""font-size:25px;"">Please move the slider all the way to the <br> right endpoint of the scale</p>

                                    </div>
                                </div>",1,"",0,"true",0,"true","","",NA,NA,NA,"","","","",NA,NA
"","","","","","html-button-response",9,80001,"0.0-8.0-1.0","3orduz4cxy",53,1904,"<p align='center'><b>Good job!</b> Click on 'Continue' to proceed.</p>",0.5,"",NA,"",NA,"","","",NA,NA,NA,"","","","",NA,NA
"","","","","","html-slider-response",10,81722,"0.0-9.0-0.0","3orduz4cxy",53,NA,"<div style=""width:500px;"">
                                    <p style=""font-size:25px;"">Please move the slider all the way to the <br> left endpoint of the scale</p>

                                    </div>
                                </div>",0,"",0,"true",1,"true","","",NA,NA,NA,"","","","",NA,NA
"","","","","","html-button-response",11,83074,"0.0-9.0-1.0","3orduz4cxy",53,849,"<p align='center'><b>Good job!</b> Click on 'Continue' to proceed.</p>",0.5,"",NA,"",NA,"","","",NA,NA,NA,"","","","",NA,NA
"","","","","","html-slider-response",12,90025,"0.0-10.0-0.0","3orduz4cxy",53,NA,"<div style=""width:500px;"">
                                    <p style=""font-size:25px;"">Please move the slider halfway between the center and right endpoint of the scale</p>

                                    </div>
                                </div>",0.7525,"",0,"true",2,"true","","",NA,NA,NA,"","","","",NA,NA
"","","","","","html-button-response",13,91889,"0.0-10.0-1.0","3orduz4cxy",53,1361,"<p align='center'><b>Good job!</b> Click on 'Continue' to proceed.</p>",0.5,"",NA,"",NA,"","","",NA,NA,NA,"","","","",NA,NA
"","","","","","html-slider-response",14,93566,"0.0-11.0-0.0","3orduz4cxy",53,NA,"<div style=""width:500px;"">
                                    <p style=""font-size:25px;"">Please move the slider halfway between the center and left endpoint of the scale</p>

                                    </div>
                                </div>",0.2575,"",0,"true",3,"true","","",NA,NA,NA,"","","","",NA,NA
"","","","","","html-button-response",15,95069,"0.0-11.0-1.0","3orduz4cxy",53,992,"<p align='center'><b>Good job!</b> Click on 'Continue' to proceed.</p>",0.5,"",NA,"",NA,"","","",NA,NA,NA,"","","","",NA,NA
"","","","","","html-button-response",16,96364,"0.0-12.0","3orduz4cxy",53,1293,"<p>Great job! You've completed the practice trials. Now you will begin the main task.</p>",0.5,"",NA,"",NA,"","","",NA,NA,NA,"","","","",NA,NA
"","","","","","html-button-response",17,98922,"0.0-13.0","3orduz4cxy",53,2556,"<p>In this block of trials, you will be asked to rate how much you associate each map with:</p > <p style = 'font-size:150%; font-weight: bold'>disgust</p><br></br>",0.5,"",NA,"",NA,"","","",NA,NA,NA,"","","","",NA,NA
"","","","","","html-slider-response",18,102800,"0.0-14.0","3orduz4cxy",53,NA,"<div style=""width:500px;"">
                            <p style=""font-size:50px; font-weight:bold;""
                            >disgust</p>
                            <div style=""width:240px; margin: auto;"">
                                <img src=""images/map23_plasma_scaleRev_orientDef_000.png"" style= ""width:200px""alt=""img"">
                            </div>
                        </div>",0.3675,"",0,"",NA,"","images/map23_plasma_scaleRev_orientDef_000.png","disgust",1,23,23,"plasma","orientDef","scaleRev","000",NA,NA
"","","","","","html-slider-response",19,107769,"0.0-15.0","3orduz4cxy",53,NA,"<div style=""width:500px;"">
                            <p style=""font-size:50px; font-weight:bold;""
                            >disgust</p>
                            <div style=""width:240px; margin: auto;"">
                                <img src=""images/map23_Greys_scaleDef_orientMir_270.png"" style= ""width:200px""alt=""img"">
                            </div>
                        </div>",0.38,"",0,"",NA,"","images/map23_Greys_scaleDef_orientMir_270.png","disgust",1,23,23,"Greys","orientMir","scaleDef","270",NA,NA
"","","","","","html-slider-response",20,110754,"0.0-16.0","3orduz4cxy",53,NA,"<div style=""width:500px;"">
                            <p style=""font-size:50px; font-weight:bold;""
                            >disgust</p>
                            <div style=""width:240px; margin: auto;"">
                                <img src=""images/map15_viridis_scaleDef_orientMir_090.png"" style= ""width:200px""alt=""img"">
                            </div>
                        </div>",0.655,"",0,"",NA,"","images/map15_viridis_scaleDef_orientMir_090.png","disgust",1,15,15,"viridis","orientMir","scaleDef","090",NA,NA
"","","","","","html-slider-response",21,113132,"0.0-17.0","3orduz4cxy",53,NA,"<div style=""width:500px;"">
                            <p style=""font-size:50px; font-weight:bold;""
                            >disgust</p>
                            <div style=""width:240px; margin: auto;"">
                                <img src=""images/map23_inferno_scaleDef_orientDef_090.png"" style= ""width:200px""alt=""img"">
                            </div>
                        </div>",0.765,"",0,"",NA,"","images/map23_inferno_scaleDef_orientDef_090.png","disgust",1,23,23,"inferno","orientDef","scaleDef","090",NA,NA
"","","","","","html-slider-response",22,115084,"0.0-18.0","3orduz4cxy",53,NA,"<div style=""width:500px;"">
                            <p style=""font-size:50px; font-weight:bold;""
                            >disgust</p>
                            <div style=""width:240px; margin: auto;"">
                                <img src=""images/map05_YlGnBu_scaleRev_orientMir_000.png"" style= ""width:200px""alt=""img"">
                            </div>
                        </div>",0.315,"",0,"",NA,"","images/map05_YlGnBu_scaleRev_orientMir_000.png","disgust",1,5,5,"YlGnBu","orientMir","scaleRev","000",NA,NA
"","","","","","html-slider-response",23,118786,"0.0-19.0","3orduz4cxy",53,NA,"<div style=""width:500px;"">
                            <p style=""font-size:50px; font-weight:bold;""
                            >disgust</p>
                            <div style=""width:240px; margin: auto;"">
                                <img src=""images/map10_RdGy_scaleRev_orientMir_000.png"" style= ""width:200px""alt=""img"">
                            </div>
                        </div>",0.6525,"",0,"",NA,"","images/map10_RdGy_scaleRev_orientMir_000.png","disgust",1,10,10,"RdGy","orientMir","scaleRev","000",NA,NA
"","","","","","html-slider-response",24,120941,"0.0-20.0","3orduz4cxy",53,NA,"<div style=""width:500px;"">
                            <p style=""font-size:50px; font-weight:bold;""
                            >disgust</p>
                            <div style=""width:240px; margin: auto;"">
                                <img src=""images/map26_Purples_scaleDef_orientDef_090.png"" style= ""width:200px""alt=""img"">
                            </div>
                        </div>",0.365,"",0,"",NA,"","images/map26_Purples_scaleDef_orientDef_090.png","disgust",1,26,26,"Purples","orientDef","scaleDef","090",NA,NA
"","","","","","html-slider-response",25,123508,"0.0-21.0","3orduz4cxy",53,NA,"<div style=""width:500px;"">
                            <p style=""font-size:50px; font-weight:bold;""
                            >disgust</p>
                            <div style=""width:240px; margin: auto;"">
                                <img src=""images/map13_managua_scaleRev_orientMir_180.png"" style= ""width:200px""alt=""img"">
                            </div>
                        </div>",0.68,"",0,"",NA,"","images/map13_managua_scaleRev_orientMir_180.png","disgust",1,13,13,"managua","orientMir","scaleRev","180",NA,NA
"","","","","","html-slider-response",26,126385,"0.0-22.0","3orduz4cxy",53,NA,"<div style=""width:500px;"">
                            <p style=""font-size:50px; font-weight:bold;""
                            >disgust</p>
                            <div style=""width:240px; margin: auto;"">
                                <img src=""images/map10_PuOr_scaleDef_orientDef_090.png"" style= ""width:200px""alt=""img"">
                            </div>
                        </div>",0.665,"",0,"",NA,"","images/map10_PuOr_scaleDef_orientDef_090.png","disgust",1,10,10,"PuOr","orientDef","scaleDef","090",NA,NA
"","","","","","html-slider-response",27,130019,"0.0-23.0","3orduz4cxy",53,NA,"<div style=""width:500px;"">
                            <p style=""font-size:50px; font-weight:bold;""
                            >disgust</p>
                            <div style=""width:240px; margin: auto;"">
                                <img src=""images/map26_Greens_scaleRev_orientMir_180.png"" style= ""width:200px""alt=""img"">
                            </div>
                        </div>",0.5625,"",0,"",NA,"","images/map26_Greens_scaleRev_orientMir_180.png","disgust",1,26,26,"Greens","orientMir","scaleRev","180",NA,NA
"","","","","","html-slider-response",28,134966,"0.0-24.0","3orduz4cxy",53,NA,"<div style=""width:500px;"">
                            <p style=""font-size:50px; font-weight:bold;""
                            >disgust</p>
                            <div style=""width:240px; margin: auto;"">
                                <img src=""images/map23_cividis_scaleDef_orientMir_090.png"" style= ""width:200px""alt=""img"">
                            </div>
                        </div>",0.33,"",0,"",NA,"","images/map23_cividis_scaleDef_orientMir_090.png","disgust",1,23,23,"cividis","orientMir","scaleDef","090",NA,NA
"","","","","","html-slider-response",29,137169,"0.0-25.0","3orduz4cxy",53,NA,"<div style=""width:500px;"">
                            <p style=""font-size:50px; font-weight:bold;""
                            >disgust</p>
                            <div style=""width:240px; margin: auto;"">
                                <img src=""images/map07_YlGn_scaleRev_orientDef_180.png"" style= ""width:200px""alt=""img"">
                            </div>
                        </div>",0.885,"",0,"",NA,"","images/map07_YlGn_scaleRev_orientDef_180.png","disgust",1,7,7,"YlGn","orientDef","scaleRev","180",NA,NA
"","","","","","html-slider-response",30,140067,"0.0-26.0","3orduz4cxy",53,NA,"<div style=""width:500px;"">
                            <p style=""font-size:50px; font-weight:bold;""
                            >disgust</p>
                            <div style=""width:240px; margin: auto;"">
                                <img src=""images/map02_BuPu_scaleRev_orientMir_180.png"" style= ""width:200px""alt=""img"">
                            </div>
                        </div>",0.7775,"",0,"",NA,"","images/map02_BuPu_scaleRev_orientMir_180.png","disgust",1,2,2,"BuPu","orientMir","scaleRev","180",NA,NA
"","","","","","html-slider-response",31,142255,"0.0-27.0","3orduz4cxy",53,NA,"<div style=""width:500px;"">
                            <p style=""font-size:50px; font-weight:bold;""
                            >disgust</p>
                            <div style=""width:240px; margin: auto;"">
                                <img src=""images/map10_RdBu_scaleRev_orientMir_180.png"" style= ""width:200px""alt=""img"">
                            </div>
                        </div>",0.6375,"",0,"",NA,"","images/map10_RdBu_scaleRev_orientMir_180.png","disgust",1,10,10,"RdBu","orientMir","scaleRev","180",NA,NA
"","","","","","html-slider-response",32,144331,"0.0-28.0","3orduz4cxy",53,NA,"<div style=""width:500px;"">
                            <p style=""font-size:50px; font-weight:bold;""
                            >disgust</p>
                            <div style=""width:240px; margin: auto;"">
                                <img src=""images/map02_RdPu_scaleDef_orientDef_270.png"" style= ""width:200px""alt=""img"">
                            </div>
                        </div>",0.6875,"",0,"",NA,"","images/map02_RdPu_scaleDef_orientDef_270.png","disgust",1,2,2,"RdPu","orientDef","scaleDef","270",NA,NA
"","","","","","html-slider-response",33,146651,"0.0-29.0","3orduz4cxy",53,NA,"<div style=""width:500px;"">
                            <p style=""font-size:50px; font-weight:bold;""
                            >disgust</p>
                            <div style=""width:240px; margin: auto;"">
                                <img src=""images/map05_BuGn_scaleDef_orientMir_270.png"" style= ""width:200px""alt=""img"">
                            </div>
                        </div>",0.4275,"",0,"",NA,"","images/map05_BuGn_scaleDef_orientMir_270.png","disgust",1,5,5,"BuGn","orientMir","scaleDef","270",NA,NA
"","","","","","html-slider-response",34,149032,"0.0-30.0","3orduz4cxy",53,NA,"<div style=""width:500px;"">
                            <p style=""font-size:50px; font-weight:bold;""
                            >disgust</p>
                            <div style=""width:240px; margin: auto;"">
                                <img src=""images/map23_inferno_scaleRev_orientDef_180.png"" style= ""width:200px""alt=""img"">
                            </div>
                        </div>",0.7275,"",0,"",NA,"","images/map23_inferno_scaleRev_orientDef_180.png","disgust",1,23,23,"inferno","orientDef","scaleRev","180",NA,NA
"","","","","","html-slider-response",35,151667,"0.0-31.0","3orduz4cxy",53,NA,"<div style=""width:500px;"">
                            <p style=""font-size:50px; font-weight:bold;""
                            >disgust</p>
                            <div style=""width:240px; margin: auto;"">
                                <img src=""images/map10_PuOr_scaleRev_orientDef_180.png"" style= ""width:200px""alt=""img"">
                            </div>
                        </div>",0.5725,"",0,"",NA,"","images/map10_PuOr_scaleRev_orientDef_180.png","disgust",1,10,10,"PuOr","orientDef","scaleRev","180",NA,NA
"","","","","","html-slider-response",36,153912,"0.0-32.0","3orduz4cxy",53,NA,"<div style=""width:500px;"">
                            <p style=""font-size:50px; font-weight:bold;""
                            >disgust</p>
                            <div style=""width:240px; margin: auto;"">
                                <img src=""images/map12_bwr_scaleDef_orientMir_270.png"" style= ""width:200px""alt=""img"">
                            </div>
                        </div>",0.7725,"",0,"",NA,"","images/map12_bwr_scaleDef_orientMir_270.png","disgust",1,12,12,"bwr","orientMir","scaleDef","270",NA,NA
"","","","","","html-slider-response",37,155719,"0.0-33.0","3orduz4cxy",53,NA,"<div style=""width:500px;"">
                            <p style=""font-size:50px; font-weight:bold;""
                            >disgust</p>
                            <div style=""width:240px; margin: auto;"">
                                <img src=""images/map02_RdPu_scaleRev_orientMir_000.png"" style= ""width:200px""alt=""img"">
                            </div>
                        </div>",0.6825,"",0,"",NA,"","images/map02_RdPu_scaleRev_orientMir_000.png","disgust",1,2,2,"RdPu","orientMir","scaleRev","000",NA,NA
"","","","","","html-slider-response",38,157794,"0.0-34.0","3orduz4cxy",53,NA,"<div style=""width:500px;"">
                            <p style=""font-size:50px; font-weight:bold;""
                            >disgust</p>
                            <div style=""width:240px; margin: auto;"">
                                <img src=""images/map13_seismic_scaleRev_orientDef_180.png"" style= ""width:200px""alt=""img"">
                            </div>
                        </div>",0.8175,"",0,"",NA,"","images/map13_seismic_scaleRev_orientDef_180.png","disgust",1,13,13,"seismic","orientDef","scaleRev","180",NA,NA
"","","","","","html-slider-response",39,159567,"0.0-35.0","3orduz4cxy",53,NA,"<div style=""width:500px;"">
                            <p style=""font-size:50px; font-weight:bold;""
                            >disgust</p>
                            <div style=""width:240px; margin: auto;"">
                                <img src=""images/map05_PuBu_scaleRev_orientDef_180.png"" style= ""width:200px""alt=""img"">
                            </div>
                        </div>",0.2525,"",0,"",NA,"","images/map05_PuBu_scaleRev_orientDef_180.png","disgust",1,5,5,"PuBu","orientDef","scaleRev","180",NA,NA
"","","","","","html-slider-response",40,161382,"0.0-36.0","3orduz4cxy",53,NA,"<div style=""width:500px;"">
                            <p style=""font-size:50px; font-weight:bold;""
                            >disgust</p>
                            <div style=""width:240px; margin: auto;"">
                                <img src=""images/map07_YlGn_scaleDef_orientDef_090.png"" style= ""width:200px""alt=""img"">
                            </div>
                        </div>",0.3425,"",0,"",NA,"","images/map07_YlGn_scaleDef_orientDef_090.png","disgust",1,7,7,"YlGn","orientDef","scaleDef","090",NA,NA
"","","","","","html-slider-response",41,163729,"0.0-37.0","3orduz4cxy",53,NA,"<div style=""width:500px;"">
                            <p style=""font-size:50px; font-weight:bold;""
                            >disgust</p>
                            <div style=""width:240px; margin: auto;"">
                                <img src=""images/map12_coolwarm_scaleDef_orientMir_090.png"" style= ""width:200px""alt=""img"">
                            </div>
                        </div>",0.6125,"",0,"",NA,"","images/map12_coolwarm_scaleDef_orientMir_090.png","disgust",1,12,12,"coolwarm","orientMir","scaleDef","090",NA,NA
"","","","","","html-slider-response",42,165866,"0.0-38.0","3orduz4cxy",53,NA,"<div style=""width:500px;"">
                            <p style=""font-size:50px; font-weight:bold;""
                            >disgust</p>
                            <div style=""width:240px; margin: auto;"">
                                <img src=""images/map07_PiYG_scaleDef_orientDef_270.png"" style= ""width:200px""alt=""img"">
                            </div>
                        </div>",0.8075,"",0,"",NA,"","images/map07_PiYG_scaleDef_orientDef_270.png","disgust",1,7,7,"PiYG","orientDef","scaleDef","270",NA,NA
"","","","","","html-slider-response",43,167783,"0.0-39.0","3orduz4cxy",53,NA,"<div style=""width:500px;"">
                            <p style=""font-size:50px; font-weight:bold;""
                            >disgust</p>
                            <div style=""width:240px; margin: auto;"">
                                <img src=""images/map07_PiYG_scaleRev_orientMir_000.png"" style= ""width:200px""alt=""img"">
                            </div>
                        </div>",0.755,"",0,"",NA,"","images/map07_PiYG_scaleRev_orientMir_000.png","disgust",1,7,7,"PiYG","orientMir","scaleRev","000",NA,NA
"","","","","","html-slider-response",44,169584,"0.0-40.0","3orduz4cxy",53,NA,"<div style=""width:500px;"">
                            <p style=""font-size:50px; font-weight:bold;""
                            >disgust</p>
                            <div style=""width:240px; margin: auto;"">
                                <img src=""images/map15_viridis_scaleRev_orientMir_180.png"" style= ""width:200px""alt=""img"">
                            </div>
                        </div>",0.7825,"",0,"",NA,"","images/map15_viridis_scaleRev_orientMir_180.png","disgust",1,15,15,"viridis","orientMir","scaleRev","180",NA,NA
"","","","","","html-slider-response",45,171601,"0.0-41.0","3orduz4cxy",53,NA,"<div style=""width:500px;"">
                            <p style=""font-size:50px; font-weight:bold;""
                            >disgust</p>
                            <div style=""width:240px; margin: auto;"">
                                <img src=""images/map07_PRGn_scaleDef_orientMir_090.png"" style= ""width:200px""alt=""img"">
                            </div>
                        </div>",0.7525,"",0,"",NA,"","images/map07_PRGn_scaleDef_orientMir_090.png","disgust",1,7,7,"PRGn","orientMir","scaleDef","090",NA,NA
"","","","","","html-slider-response",46,174795,"0.0-42.0","3orduz4cxy",53,NA,"<div style=""width:500px;"">
                            <p style=""font-size:50px; font-weight:bold;""
                            >disgust</p>
                            <div style=""width:240px; margin: auto;"">
                                <img src=""images/map27_YlOrRd_scaleRev_orientMir_180.png"" style= ""width:200px""alt=""img"">
                            </div>
                        </div>",0.645,"",0,"",NA,"","images/map27_YlOrRd_scaleRev_orientMir_180.png","disgust",1,27,27,"YlOrRd","orientMir","scaleRev","180",NA,NA
"","","","","","html-slider-response",47,177181,"0.0-43.0","3orduz4cxy",53,NA,"<div style=""width:500px;"">
                            <p style=""font-size:50px; font-weight:bold;""
                            >disgust</p>
                            <div style=""width:240px; margin: auto;"">
                                <img src=""images/map07_BuGn_scaleRev_orientDef_000.png"" style= ""width:200px""alt=""img"">
                            </div>
                        </div>",0.6575,"",0,"",NA,"","images/map07_BuGn_scaleRev_orientDef_000.png","disgust",1,7,7,"BuGn","orientDef","scaleRev","000",NA,NA
"","","","","","html-slider-response",48,181265,"0.0-44.0","3orduz4cxy",53,NA,"<div style=""width:500px;"">
                            <p style=""font-size:50px; font-weight:bold;""
                            >disgust</p>
                            <div style=""width:240px; margin: auto;"">
                                <img src=""images/map23_cividis_scaleRev_orientMir_180.png"" style= ""width:200px""alt=""img"">
                            </div>
                        </div>",0.6,"",0,"",NA,"","images/map23_cividis_scaleRev_orientMir_180.png","disgust",1,23,23,"cividis","orientMir","scaleRev","180",NA,NA
"","","","","","html-slider-response",49,183339,"0.0-45.0","3orduz4cxy",53,NA,"<div style=""width:500px;"">
                            <p style=""font-size:50px; font-weight:bold;""
                            >disgust</p>
                            <div style=""width:240px; margin: auto;"">
                                <img src=""images/map15_vanimo_scaleRev_orientDef_000.png"" style= ""width:200px""alt=""img"">
                            </div>
                        </div>",0.865,"",0,"",NA,"","images/map15_vanimo_scaleRev_orientDef_000.png","disgust",1,15,15,"vanimo","orientDef","scaleRev","000",NA,NA
"","","","","","html-slider-response",50,185356,"0.0-46.0","3orduz4cxy",53,NA,"<div style=""width:500px;"">
                            <p style=""font-size:50px; font-weight:bold;""
                            >disgust</p>
                            <div style=""width:240px; margin: auto;"">
                                <img src=""images/map02_GnBu_scaleDef_orientMir_270.png"" style= ""width:200px""alt=""img"">
                            </div>
                        </div>",0.365,"",0,"",NA,"","images/map02_GnBu_scaleDef_orientMir_270.png","disgust",1,2,2,"GnBu","orientMir","scaleDef","270",NA,NA
"","","","","","html-slider-response",51,187384,"0.0-47.0","3orduz4cxy",53,NA,"<div style=""width:500px;"">
                            <p style=""font-size:50px; font-weight:bold;""
                            >disgust</p>
                            <div style=""width:240px; margin: auto;"">
                                <img src=""images/map02_PuRd_scaleRev_orientDef_180.png"" style= ""width:200px""alt=""img"">
                            </div>
                        </div>",0.335,"",0,"",NA,"","images/map02_PuRd_scaleRev_orientDef_180.png","disgust",1,2,2,"PuRd","orientDef","scaleRev","180",NA,NA
"","","","","","html-slider-response",52,189550,"0.0-48.0","3orduz4cxy",53,NA,"<div style=""width:500px;"">
                            <p style=""font-size:50px; font-weight:bold;""
                            >disgust</p>
                            <div style=""width:240px; margin: auto;"">
                                <img src=""images/map13_vanimo_scaleDef_orientMir_270.png"" style= ""width:200px""alt=""img"">
                            </div>
                        </div>",0.8525,"",0,"",NA,"","images/map13_vanimo_scaleDef_orientMir_270.png","disgust",1,13,13,"vanimo","orientMir","scaleDef","270",NA,NA
"","","","","","html-slider-response",53,191934,"0.0-49.0","3orduz4cxy",53,NA,"<div style=""width:500px;"">
                            <p style=""font-size:50px; font-weight:bold;""
                            >disgust</p>
                            <div style=""width:240px; margin: auto;"">
                                <img src=""images/map27_OrRd_scaleDef_orientMir_270.png"" style= ""width:200px""alt=""img"">
                            </div>
                        </div>",0.3525,"",0,"",NA,"","images/map27_OrRd_scaleDef_orientMir_270.png","disgust",1,27,27,"OrRd","orientMir","scaleDef","270",NA,NA
"","","","","","html-slider-response",54,196051,"0.0-50.0","3orduz4cxy",53,NA,"<div style=""width:500px;"">
                            <p style=""font-size:50px; font-weight:bold;""
                            >disgust</p>
                            <div style=""width:240px; margin: auto;"">
                                <img src=""images/map12_RdYlGn_scaleDef_orientDef_090.png"" style= ""width:200px""alt=""img"">
                            </div>
                        </div>",0.645,"",0,"",NA,"","images/map12_RdYlGn_scaleDef_orientDef_090.png","disgust",1,12,12,"RdYlGn","orientDef","scaleDef","090",NA,NA
"","","","","","html-slider-response",55,198099,"0.0-51.0","3orduz4cxy",53,NA,"<div style=""width:500px;"">
                            <p style=""font-size:50px; font-weight:bold;""
                            >disgust</p>
                            <div style=""width:240px; margin: auto;"">
                                <img src=""images/map15_turbo_scaleDef_orientDef_270.png"" style= ""width:200px""alt=""img"">
                            </div>
                        </div>",0.815,"",0,"",NA,"","images/map15_turbo_scaleDef_orientDef_270.png","disgust",1,15,15,"turbo","orientDef","scaleDef","270",NA,NA
"","","","","","html-slider-response",56,199966,"0.0-52.0","3orduz4cxy",53,NA,"<div style=""width:500px;"">
                            <p style=""font-size:50px; font-weight:bold;""
                            >disgust</p>
                            <div style=""width:240px; margin: auto;"">
                                <img src=""images/map26_Blues_scaleRev_orientMir_000.png"" style= ""width:200px""alt=""img"">
                            </div>
                        </div>",0.1625,"",0,"",NA,"","images/map26_Blues_scaleRev_orientMir_000.png","disgust",1,26,26,"Blues","orientMir","scaleRev","000",NA,NA
"","","","","","html-slider-response",57,203365,"0.0-53.0","3orduz4cxy",53,NA,"<div style=""width:500px;"">
                            <p style=""font-size:50px; font-weight:bold;""
                            >disgust</p>
                            <div style=""width:240px; margin: auto;"">
                                <img src=""images/map27_Reds_scaleRev_orientDef_180.png"" style= ""width:200px""alt=""img"">
                            </div>
                        </div>",0.365,"",0,"",NA,"","images/map27_Reds_scaleRev_orientDef_180.png","disgust",1,27,27,"Reds","orientDef","scaleRev","180",NA,NA
"","","","","","html-button-response",58,206566,"0.0-54.0","3orduz4cxy",53,2698,"<p>You are doing great!<br></br> You are halway done with the current block. When you are ready to continue, click the 'Continue' button.</p>",0.5,"",NA,"",NA,"","","",NA,NA,NA,"","","","",NA,NA
"","","","","","html-slider-response",59,209282,"0.0-55.0","3orduz4cxy",53,NA,"<div style=""width:500px;"">
                            <p style=""font-size:50px; font-weight:bold;""
                            >disgust</p>
                            <div style=""width:240px; margin: auto;"">
                                <img src=""images/map13_managua_scaleDef_orientMir_090.png"" style= ""width:200px""alt=""img"">
                            </div>
                        </div>",0.73,"",0,"",NA,"","images/map13_managua_scaleDef_orientMir_090.png","disgust",1,13,13,"managua","orientMir","scaleDef","090",NA,NA
"","","","","","html-slider-response",60,211882,"0.0-56.0","3orduz4cxy",53,NA,"<div style=""width:500px;"">
                            <p style=""font-size:50px; font-weight:bold;""
                            >disgust</p>
                            <div style=""width:240px; margin: auto;"">
                                <img src=""images/map26_Greens_scaleDef_orientMir_090.png"" style= ""width:200px""alt=""img"">
                            </div>
                        </div>",0.3375,"",0,"",NA,"","images/map26_Greens_scaleDef_orientMir_090.png","disgust",1,26,26,"Greens","orientMir","scaleDef","090",NA,NA
"","","","","","html-slider-response",61,213765,"0.0-57.0","3orduz4cxy",53,NA,"<div style=""width:500px;"">
                            <p style=""font-size:50px; font-weight:bold;""
                            >disgust</p>
                            <div style=""width:240px; margin: auto;"">
                                <img src=""images/map15_gist_earth_scaleRev_orientDef_180.png"" style= ""width:200px""alt=""img"">
                            </div>
                        </div>",0.885,"",0,"",NA,"","images/map15_gist_earth_scaleRev_orientDef_180.png","disgust",1,15,15,"gist","scaleRev","earth","orientDef",NA,NA
"","","","","","html-slider-response",62,216124,"0.0-58.0","3orduz4cxy",53,NA,"<div style=""width:500px;"">
                            <p style=""font-size:50px; font-weight:bold;""
                            >disgust</p>
                            <div style=""width:240px; margin: auto;"">
                                <img src=""images/map23_magma_scaleDef_orientDef_270.png"" style= ""width:200px""alt=""img"">
                            </div>
                        </div>",0.7625,"",0,"",NA,"","images/map23_magma_scaleDef_orientDef_270.png","disgust",1,23,23,"magma","orientDef","scaleDef","270",NA,NA
"","","","","","html-slider-response",63,218313,"0.0-59.0","3orduz4cxy",53,NA,"<div style=""width:500px;"">
                            <p style=""font-size:50px; font-weight:bold;""
                            >disgust</p>
                            <div style=""width:240px; margin: auto;"">
                                <img src=""images/map12_coolwarm_scaleRev_orientMir_180.png"" style= ""width:200px""alt=""img"">
                            </div>
                        </div>",0.75,"",0,"",NA,"","images/map12_coolwarm_scaleRev_orientMir_180.png","disgust",1,12,12,"coolwarm","orientMir","scaleRev","180",NA,NA
"","","","","","html-slider-response",64,221811,"0.0-60.0","3orduz4cxy",53,NA,"<div style=""width:500px;"">
                            <p style=""font-size:50px; font-weight:bold;""
                            >disgust</p>
                            <div style=""width:240px; margin: auto;"">
                                <img src=""images/map05_YlGnBu_scaleDef_orientDef_270.png"" style= ""width:200px""alt=""img"">
                            </div>
                        </div>",0.465,"",0,"",NA,"","images/map05_YlGnBu_scaleDef_orientDef_270.png","disgust",1,5,5,"YlGnBu","orientDef","scaleDef","270",NA,NA
"","","","","","html-slider-response",65,223883,"0.0-61.0","3orduz4cxy",53,NA,"<div style=""width:500px;"">
                            <p style=""font-size:50px; font-weight:bold;""
                            >disgust</p>
                            <div style=""width:240px; margin: auto;"">
                                <img src=""images/map26_Purples_scaleRev_orientDef_180.png"" style= ""width:200px""alt=""img"">
                            </div>
                        </div>",0.4525,"",0,"",NA,"","images/map26_Purples_scaleRev_orientDef_180.png","disgust",1,26,26,"Purples","orientDef","scaleRev","180",NA,NA
"","","","","","html-slider-response",66,225869,"0.0-62.0","3orduz4cxy",53,NA,"<div style=""width:500px;"">
                            <p style=""font-size:50px; font-weight:bold;""
                            >disgust</p>
                            <div style=""width:240px; margin: auto;"">
                                <img src=""images/map07_BrBG_scaleDef_orientMir_270.png"" style= ""width:200px""alt=""img"">
                            </div>
                        </div>",0.835,"",0,"",NA,"","images/map07_BrBG_scaleDef_orientMir_270.png","disgust",1,7,7,"BrBG","orientMir","scaleDef","270",NA,NA
"","","","","","html-slider-response",67,227538,"0.0-63.0","3orduz4cxy",53,NA,"<div style=""width:500px;"">
                            <p style=""font-size:50px; font-weight:bold;""
                            >disgust</p>
                            <div style=""width:240px; margin: auto;"">
                                <img src=""images/map13_seismic_scaleDef_orientDef_090.png"" style= ""width:200px""alt=""img"">
                            </div>
                        </div>",0.815,"",0,"",NA,"","images/map13_seismic_scaleDef_orientDef_090.png","disgust",1,13,13,"seismic","orientDef","scaleDef","090",NA,NA
"","","","","","html-slider-response",68,231214,"0.0-64.0","3orduz4cxy",53,NA,"<div style=""width:500px;"">
                            <p style=""font-size:50px; font-weight:bold;""
                            >disgust</p>
                            <div style=""width:240px; margin: auto;"">
                                <img src=""images/map27_YlOrRd_scaleDef_orientMir_090.png"" style= ""width:200px""alt=""img"">
                            </div>
                        </div>",0.355,"",0,"",NA,"","images/map27_YlOrRd_scaleDef_orientMir_090.png","disgust",1,27,27,"YlOrRd","orientMir","scaleDef","090",NA,NA
"","","","","","html-slider-response",69,262465,"0.0-65.0","3orduz4cxy",53,NA,"<div style=""width:500px;"">
                            <p style=""font-size:50px; font-weight:bold;""
                            >disgust</p>
                            <div style=""width:240px; margin: auto;"">
                                <img src=""images/map15_turbo_scaleRev_orientMir_000.png"" style= ""width:200px""alt=""img"">
                            </div>
                        </div>",0.6725,"",0,"",NA,"","images/map15_turbo_scaleRev_orientMir_000.png","disgust",1,15,15,"turbo","orientMir","scaleRev","000",NA,NA
"","","","","","html-slider-response",70,264499,"0.0-66.0","3orduz4cxy",53,NA,"<div style=""width:500px;"">
                            <p style=""font-size:50px; font-weight:bold;""
                            >disgust</p>
                            <div style=""width:240px; margin: auto;"">
                                <img src=""images/map02_BuPu_scaleDef_orientMir_090.png"" style= ""width:200px""alt=""img"">
                            </div>
                        </div>",0.4125,"",0,"",NA,"","images/map02_BuPu_scaleDef_orientMir_090.png","disgust",1,2,2,"BuPu","orientMir","scaleDef","090",NA,NA
"","","","","","html-slider-response",71,267859,"0.0-67.0","3orduz4cxy",53,NA,"<div style=""width:500px;"">
                            <p style=""font-size:50px; font-weight:bold;""
                            >disgust</p>
                            <div style=""width:240px; margin: auto;"">
                                <img src=""images/map13_berlin_scaleDef_orientDef_270.png"" style= ""width:200px""alt=""img"">
                            </div>
                        </div>",0.875,"",0,"",NA,"","images/map13_berlin_scaleDef_orientDef_270.png","disgust",1,13,13,"berlin","orientDef","scaleDef","270",NA,NA
"","","","","","html-slider-response",72,270233,"0.0-68.0","3orduz4cxy",53,NA,"<div style=""width:500px;"">
                            <p style=""font-size:50px; font-weight:bold;""
                            >disgust</p>
                            <div style=""width:240px; margin: auto;"">
                                <img src=""images/map07_PRGn_scaleRev_orientMir_180.png"" style= ""width:200px""alt=""img"">
                            </div>
                        </div>",0.335,"",0,"",NA,"","images/map07_PRGn_scaleRev_orientMir_180.png","disgust",1,7,7,"PRGn","orientMir","scaleRev","180",NA,NA
"","","","","","html-slider-response",73,272361,"0.0-69.0","3orduz4cxy",53,NA,"<div style=""width:500px;"">
                            <p style=""font-size:50px; font-weight:bold;""
                            >disgust</p>
                            <div style=""width:240px; margin: auto;"">
                                <img src=""images/map12_Spectral_scaleDef_orientDef_270.png"" style= ""width:200px""alt=""img"">
                            </div>
                        </div>",0.765,"",0,"",NA,"","images/map12_Spectral_scaleDef_orientDef_270.png","disgust",1,12,12,"Spectral","orientDef","scaleDef","270",NA,NA
"","","","","","html-slider-response",74,275431,"0.0-70.0","3orduz4cxy",53,NA,"<div style=""width:500px;"">
                            <p style=""font-size:50px; font-weight:bold;""
                            >disgust</p>
                            <div style=""width:240px; margin: auto;"">
                                <img src=""images/map02_PuRd_scaleDef_orientDef_090.png"" style= ""width:200px""alt=""img"">
                            </div>
                        </div>",0.385,"",0,"",NA,"","images/map02_PuRd_scaleDef_orientDef_090.png","disgust",1,2,2,"PuRd","orientDef","scaleDef","090",NA,NA
"","","","","","html-slider-response",75,278816,"0.0-71.0","3orduz4cxy",53,NA,"<div style=""width:500px;"">
                            <p style=""font-size:50px; font-weight:bold;""
                            >disgust</p>
                            <div style=""width:240px; margin: auto;"">
                                <img src=""images/map10_RdYlBu_scaleDef_orientMir_270.png"" style= ""width:200px""alt=""img"">
                            </div>
                        </div>",0.4075,"",0,"",NA,"","images/map10_RdYlBu_scaleDef_orientMir_270.png","disgust",1,10,10,"RdYlBu","orientMir","scaleDef","270",NA,NA
"","","","","","html-slider-response",76,280524,"0.0-72.0","3orduz4cxy",53,NA,"<div style=""width:500px;"">
                            <p style=""font-size:50px; font-weight:bold;""
                            >disgust</p>
                            <div style=""width:240px; margin: auto;"">
                                <img src=""images/map23_magma_scaleRev_orientMir_000.png"" style= ""width:200px""alt=""img"">
                            </div>
                        </div>",0.8075,"",0,"",NA,"","images/map23_magma_scaleRev_orientMir_000.png","disgust",1,23,23,"magma","orientMir","scaleRev","000",NA,NA
"","","","","","html-slider-response",77,282225,"0.0-73.0","3orduz4cxy",53,NA,"<div style=""width:500px;"">
                            <p style=""font-size:50px; font-weight:bold;""
                            >disgust</p>
                            <div style=""width:240px; margin: auto;"">
                                <img src=""images/map05_PuBuGn_scaleRev_orientMir_180.png"" style= ""width:200px""alt=""img"">
                            </div>
                        </div>",0.245,"",0,"",NA,"","images/map05_PuBuGn_scaleRev_orientMir_180.png","disgust",1,5,5,"PuBuGn","orientMir","scaleRev","180",NA,NA
"","","","","","html-slider-response",78,283927,"0.0-74.0","3orduz4cxy",53,NA,"<div style=""width:500px;"">
                            <p style=""font-size:50px; font-weight:bold;""
                            >disgust</p>
                            <div style=""width:240px; margin: auto;"">
                                <img src=""images/map05_PuBu_scaleDef_orientDef_090.png"" style= ""width:200px""alt=""img"">
                            </div>
                        </div>",0.2475,"",0,"",NA,"","images/map05_PuBu_scaleDef_orientDef_090.png","disgust",1,5,5,"PuBu","orientDef","scaleDef","090",NA,NA
"","","","","","html-slider-response",79,285962,"0.0-75.0","3orduz4cxy",53,NA,"<div style=""width:500px;"">
                            <p style=""font-size:50px; font-weight:bold;""
                            >disgust</p>
                            <div style=""width:240px; margin: auto;"">
                                <img src=""images/map10_RdBu_scaleDef_orientMir_090.png"" style= ""width:200px""alt=""img"">
                            </div>
                        </div>",0.585,"",0,"",NA,"","images/map10_RdBu_scaleDef_orientMir_090.png","disgust",1,10,10,"RdBu","orientMir","scaleDef","090",NA,NA
"","","","","","html-slider-response",80,287762,"0.0-76.0","3orduz4cxy",53,NA,"<div style=""width:500px;"">
                            <p style=""font-size:50px; font-weight:bold;""
                            >disgust</p>
                            <div style=""width:240px; margin: auto;"">
                                <img src=""images/map15_gist_earth_scaleDef_orientDef_090.png"" style= ""width:200px""alt=""img"">
                            </div>
                        </div>",0.815,"",0,"",NA,"","images/map15_gist_earth_scaleDef_orientDef_090.png","disgust",1,15,15,"gist","scaleDef","earth","orientDef",NA,NA
"","","","","","html-slider-response",81,289678,"0.0-77.0","3orduz4cxy",53,NA,"<div style=""width:500px;"">
                            <p style=""font-size:50px; font-weight:bold;""
                            >disgust</p>
                            <div style=""width:240px; margin: auto;"">
                                <img src=""images/map27_Reds_scaleDef_orientDef_090.png"" style= ""width:200px""alt=""img"">
                            </div>
                        </div>",0.395,"",0,"",NA,"","images/map27_Reds_scaleDef_orientDef_090.png","disgust",1,27,27,"Reds","orientDef","scaleDef","090",NA,NA
"","","","","","html-slider-response",82,291380,"0.0-78.0","3orduz4cxy",53,NA,"<div style=""width:500px;"">
                            <p style=""font-size:50px; font-weight:bold;""
                            >disgust</p>
                            <div style=""width:240px; margin: auto;"">
                                <img src=""images/map05_PuBuGn_scaleDef_orientMir_090.png"" style= ""width:200px""alt=""img"">
                            </div>
                        </div>",0.375,"",0,"",NA,"","images/map05_PuBuGn_scaleDef_orientMir_090.png","disgust",1,5,5,"PuBuGn","orientMir","scaleDef","090",NA,NA
"","","","","","html-slider-response",83,292996,"0.0-79.0","3orduz4cxy",53,NA,"<div style=""width:500px;"">
                            <p style=""font-size:50px; font-weight:bold;""
                            >disgust</p>
                            <div style=""width:240px; margin: auto;"">
                                <img src=""images/map12_RdYlBu_scaleRev_orientDef_000.png"" style= ""width:200px""alt=""img"">
                            </div>
                        </div>",0.755,"",0,"",NA,"","images/map12_RdYlBu_scaleRev_orientDef_000.png","disgust",1,12,12,"RdYlBu","orientDef","scaleRev","000",NA,NA
"","","","","","html-slider-response",84,295092,"0.0-80.0","3orduz4cxy",53,NA,"<div style=""width:500px;"">
                            <p style=""font-size:50px; font-weight:bold;""
                            >disgust</p>
                            <div style=""width:240px; margin: auto;"">
                                <img src=""images/map26_Blues_scaleDef_orientDef_270.png"" style= ""width:200px""alt=""img"">
                            </div>
                        </div>",0.25,"",0,"",NA,"","images/map26_Blues_scaleDef_orientDef_270.png","disgust",1,26,26,"Blues","orientDef","scaleDef","270",NA,NA
"","","","","","html-slider-response",85,297911,"0.0-81.0","3orduz4cxy",53,NA,"<div style=""width:500px;"">
                            <p style=""font-size:50px; font-weight:bold;""
                            >disgust</p>
                            <div style=""width:240px; margin: auto;"">
                                <img src=""images/map05_GnBu_scaleRev_orientDef_000.png"" style= ""width:200px""alt=""img"">
                            </div>
                        </div>",0.2,"",0,"",NA,"","images/map05_GnBu_scaleRev_orientDef_000.png","disgust",1,5,5,"GnBu","orientDef","scaleRev","000",NA,NA
"","","","","","html-slider-response",86,299727,"0.0-82.0","3orduz4cxy",53,NA,"<div style=""width:500px;"">
                            <p style=""font-size:50px; font-weight:bold;""
                            >disgust</p>
                            <div style=""width:240px; margin: auto;"">
                                <img src=""images/map12_RdYlGn_scaleRev_orientDef_180.png"" style= ""width:200px""alt=""img"">
                            </div>
                        </div>",0.815,"",0,"",NA,"","images/map12_RdYlGn_scaleRev_orientDef_180.png","disgust",1,12,12,"RdYlGn","orientDef","scaleRev","180",NA,NA
"","","","","","html-slider-response",87,301738,"0.0-83.0","3orduz4cxy",53,NA,"<div style=""width:500px;"">
                            <p style=""font-size:50px; font-weight:bold;""
                            >disgust</p>
                            <div style=""width:240px; margin: auto;"">
                                <img src=""images/map26_Oranges_scaleDef_orientMir_270.png"" style= ""width:200px""alt=""img"">
                            </div>
                        </div>",0.3225,"",0,"",NA,"","images/map26_Oranges_scaleDef_orientMir_270.png","disgust",1,26,26,"Oranges","orientMir","scaleDef","270",NA,NA
"","","","","","html-slider-response",88,303426,"0.0-84.0","3orduz4cxy",53,NA,"<div style=""width:500px;"">
                            <p style=""font-size:50px; font-weight:bold;""
                            >disgust</p>
                            <div style=""width:240px; margin: auto;"">
                                <img src=""images/map12_Spectral_scaleRev_orientMir_000.png"" style= ""width:200px""alt=""img"">
                            </div>
                        </div>",0.81,"",0,"",NA,"","images/map12_Spectral_scaleRev_orientMir_000.png","disgust",1,12,12,"Spectral","orientMir","scaleRev","000",NA,NA
"","","","","","html-slider-response",89,305378,"0.0-85.0","3orduz4cxy",53,NA,"<div style=""width:500px;"">
                            <p style=""font-size:50px; font-weight:bold;""
                            >disgust</p>
                            <div style=""width:240px; margin: auto;"">
                                <img src=""images/map10_RdGy_scaleDef_orientDef_270.png"" style= ""width:200px""alt=""img"">
                            </div>
                        </div>",0.825,"",0,"",NA,"","images/map10_RdGy_scaleDef_orientDef_270.png","disgust",1,10,10,"RdGy","orientDef","scaleDef","270",NA,NA
"","","","","","html-slider-response",90,308017,"0.0-86.0","3orduz4cxy",53,NA,"<div style=""width:500px;"">
                            <p style=""font-size:50px; font-weight:bold;""
                            >disgust</p>
                            <div style=""width:240px; margin: auto;"">
                                <img src=""images/map02_OrRd_scaleRev_orientDef_000.png"" style= ""width:200px""alt=""img"">
                            </div>
                        </div>",0.255,"",0,"",NA,"","images/map02_OrRd_scaleRev_orientDef_000.png","disgust",1,2,2,"OrRd","orientDef","scaleRev","000",NA,NA
"","","","","","html-slider-response",91,310245,"0.0-87.0","3orduz4cxy",53,NA,"<div style=""width:500px;"">
                            <p style=""font-size:50px; font-weight:bold;""
                            >disgust</p>
                            <div style=""width:240px; margin: auto;"">
                                <img src=""images/map10_BrBG_scaleRev_orientDef_000.png"" style= ""width:200px""alt=""img"">
                            </div>
                        </div>",0.68,"",0,"",NA,"","images/map10_BrBG_scaleRev_orientDef_000.png","disgust",1,10,10,"BrBG","orientDef","scaleRev","000",NA,NA
"","","","","","html-slider-response",92,312277,"0.0-88.0","3orduz4cxy",53,NA,"<div style=""width:500px;"">
                            <p style=""font-size:50px; font-weight:bold;""
                            >disgust</p>
                            <div style=""width:240px; margin: auto;"">
                                <img src=""images/map13_bwr_scaleRev_orientDef_000.png"" style= ""width:200px""alt=""img"">
                            </div>
                        </div>",0.7525,"",0,"",NA,"","images/map13_bwr_scaleRev_orientDef_000.png","disgust",1,13,13,"bwr","orientDef","scaleRev","000",NA,NA
"","","","","","html-slider-response",93,314046,"0.0-89.0","3orduz4cxy",53,NA,"<div style=""width:500px;"">
                            <p style=""font-size:50px; font-weight:bold;""
                            >disgust</p>
                            <div style=""width:240px; margin: auto;"">
                                <img src=""images/map27_Oranges_scaleRev_orientDef_000.png"" style= ""width:200px""alt=""img"">
                            </div>
                        </div>",0.335,"",0,"",NA,"","images/map27_Oranges_scaleRev_orientDef_000.png","disgust",1,27,27,"Oranges","orientDef","scaleRev","000",NA,NA
"","","","","","html-slider-response",94,316310,"0.0-90.0","3orduz4cxy",53,NA,"<div style=""width:500px;"">
                            <p style=""font-size:50px; font-weight:bold;""
                            >disgust</p>
                            <div style=""width:240px; margin: auto;"">
                                <img src=""images/map27_YlOrBr_scaleDef_orientDef_270.png"" style= ""width:200px""alt=""img"">
                            </div>
                        </div>",0.3125,"",0,"",NA,"","images/map27_YlOrBr_scaleDef_orientDef_270.png","disgust",1,27,27,"YlOrBr","orientDef","scaleDef","270",NA,NA
"","","","","","html-slider-response",95,318052,"0.0-91.0","3orduz4cxy",53,NA,"<div style=""width:500px;"">
                            <p style=""font-size:50px; font-weight:bold;""
                            >disgust</p>
                            <div style=""width:240px; margin: auto;"">
                                <img src=""images/map26_Greys_scaleRev_orientDef_000.png"" style= ""width:200px""alt=""img"">
                            </div>
                        </div>",0.385,"",0,"",NA,"","images/map26_Greys_scaleRev_orientDef_000.png","disgust",1,26,26,"Greys","orientDef","scaleRev","000",NA,NA
"","","","","","html-slider-response",96,319680,"0.0-92.0","3orduz4cxy",53,NA,"<div style=""width:500px;"">
                            <p style=""font-size:50px; font-weight:bold;""
                            >disgust</p>
                            <div style=""width:240px; margin: auto;"">
                                <img src=""images/map27_YlOrBr_scaleRev_orientMir_000.png"" style= ""width:200px""alt=""img"">
                            </div>
                        </div>",0.3325,"",0,"",NA,"","images/map27_YlOrBr_scaleRev_orientMir_000.png","disgust",1,27,27,"YlOrBr","orientMir","scaleRev","000",NA,NA
"","","","","","html-slider-response",97,321334,"0.0-93.0","3orduz4cxy",53,NA,"<div style=""width:500px;"">
                            <p style=""font-size:50px; font-weight:bold;""
                            >disgust</p>
                            <div style=""width:240px; margin: auto;"">
                                <img src=""images/map15_plasma_scaleDef_orientMir_270.png"" style= ""width:200px""alt=""img"">
                            </div>
                        </div>",0.735,"",0,"",NA,"","images/map15_plasma_scaleDef_orientMir_270.png","disgust",1,15,15,"plasma","orientMir","scaleDef","270",NA,NA
"","","","","","html-slider-response",98,323078,"0.0-94.0","3orduz4cxy",53,NA,"<div style=""width:500px;"">
                            <p style=""font-size:50px; font-weight:bold;""
                            >disgust</p>
                            <div style=""width:240px; margin: auto;"">
                                <img src=""images/map13_berlin_scaleRev_orientMir_000.png"" style= ""width:200px""alt=""img"">
                            </div>
                        </div>",0.945,"",0,"",NA,"","images/map13_berlin_scaleRev_orientMir_000.png","disgust",1,13,13,"berlin","orientMir","scaleRev","000",NA,NA
"","","","","","html-button-response",99,427428,"0.0-95.0","3orduz4cxy",53,103847,"<p>Great Job! You've finished block 1.<br></br> You have 4 block(s) left to go.<br></br></p>",0.5,"",NA,"",NA,"","","",NA,NA,NA,"","","","",NA,NA
"","","","","","html-button-response",100,428796,"0.0-96.0","3orduz4cxy",53,1366,"<p>In this block of trials, you will be asked to rate how much you associate each map with:</p > <p style = 'font-size:150%; font-weight: bold'>fearful</p><br></br>",0.5,"",NA,"",NA,"","","",NA,NA,NA,"","","","",NA,NA
"","","","","","html-slider-response",101,432488,"0.0-97.0","3orduz4cxy",53,NA,"<div style=""width:500px;"">
                            <p style=""font-size:50px; font-weight:bold;""
                            >fearful</p>
                            <div style=""width:240px; margin: auto;"">
                                <img src=""images/map23_Greys_scaleDef_orientMir_270.png"" style= ""width:200px""alt=""img"">
                            </div>
                        </div>",0.72,"",0,"",NA,"","images/map23_Greys_scaleDef_orientMir_270.png","fearful",1,23,23,"Greys","orientMir","scaleDef","270",NA,NA
"","","","","","html-slider-response",102,436320,"0.0-98.0","3orduz4cxy",53,NA,"<div style=""width:500px;"">
                            <p style=""font-size:50px; font-weight:bold;""
                            >fearful</p>
                            <div style=""width:240px; margin: auto;"">
                                <img src=""images/map12_bwr_scaleDef_orientMir_270.png"" style= ""width:200px""alt=""img"">
                            </div>
                        </div>",0.6725,"",0,"",NA,"","images/map12_bwr_scaleDef_orientMir_270.png","fearful",1,12,12,"bwr","orientMir","scaleDef","270",NA,NA
"","","","","","html-slider-response",103,438320,"0.0-99.0","3orduz4cxy",53,NA,"<div style=""width:500px;"">
                            <p style=""font-size:50px; font-weight:bold;""
                            >fearful</p>
                            <div style=""width:240px; margin: auto;"">
                                <img src=""images/map10_RdGy_scaleRev_orientMir_000.png"" style= ""width:200px""alt=""img"">
                            </div>
                        </div>",0.7825,"",0,"",NA,"","images/map10_RdGy_scaleRev_orientMir_000.png","fearful",1,10,10,"RdGy","orientMir","scaleRev","000",NA,NA
"","","","","","html-slider-response",104,440044,"0.0-100.0","3orduz4cxy",53,NA,"<div style=""width:500px;"">
                            <p style=""font-size:50px; font-weight:bold;""
                            >fearful</p>
                            <div style=""width:240px; margin: auto;"">
                                <img src=""images/map12_RdYlGn_scaleRev_orientDef_180.png"" style= ""width:200px""alt=""img"">
                            </div>
                        </div>",0.7925,"",0,"",NA,"","images/map12_RdYlGn_scaleRev_orientDef_180.png","fearful",1,12,12,"RdYlGn","orientDef","scaleRev","180",NA,NA
"","","","","","html-slider-response",105,442507,"0.0-101.0","3orduz4cxy",53,NA,"<div style=""width:500px;"">
                            <p style=""font-size:50px; font-weight:bold;""
                            >fearful</p>
                            <div style=""width:240px; margin: auto;"">
                                <img src=""images/map10_RdBu_scaleRev_orientMir_180.png"" style= ""width:200px""alt=""img"">
                            </div>
                        </div>",0.595,"",0,"",NA,"","images/map10_RdBu_scaleRev_orientMir_180.png","fearful",1,10,10,"RdBu","orientMir","scaleRev","180",NA,NA
"","","","","","html-slider-response",106,444458,"0.0-102.0","3orduz4cxy",53,NA,"<div style=""width:500px;"">
                            <p style=""font-size:50px; font-weight:bold;""
                            >fearful</p>
                            <div style=""width:240px; margin: auto;"">
                                <img src=""images/map15_turbo_scaleDef_orientDef_270.png"" style= ""width:200px""alt=""img"">
                            </div>
                        </div>",0.7825,"",0,"",NA,"","images/map15_turbo_scaleDef_orientDef_270.png","fearful",1,15,15,"turbo","orientDef","scaleDef","270",NA,NA
"","","","","","html-slider-response",107,446092,"0.0-103.0","3orduz4cxy",53,NA,"<div style=""width:500px;"">
                            <p style=""font-size:50px; font-weight:bold;""
                            >fearful</p>
                            <div style=""width:240px; margin: auto;"">
                                <img src=""images/map12_RdYlGn_scaleDef_orientDef_090.png"" style= ""width:200px""alt=""img"">
                            </div>
                        </div>",0.865,"",0,"",NA,"","images/map12_RdYlGn_scaleDef_orientDef_090.png","fearful",1,12,12,"RdYlGn","orientDef","scaleDef","090",NA,NA
"","","","","","html-slider-response",108,447956,"0.0-104.0","3orduz4cxy",53,NA,"<div style=""width:500px;"">
                            <p style=""font-size:50px; font-weight:bold;""
                            >fearful</p>
                            <div style=""width:240px; margin: auto;"">
                                <img src=""images/map15_viridis_scaleDef_orientMir_090.png"" style= ""width:200px""alt=""img"">
                            </div>
                        </div>",0.7375,"",0,"",NA,"","images/map15_viridis_scaleDef_orientMir_090.png","fearful",1,15,15,"viridis","orientMir","scaleDef","090",NA,NA
"","","","","","html-slider-response",109,450293,"0.0-105.0","3orduz4cxy",53,NA,"<div style=""width:500px;"">
                            <p style=""font-size:50px; font-weight:bold;""
                            >fearful</p>
                            <div style=""width:240px; margin: auto;"">
                                <img src=""images/map26_Purples_scaleRev_orientDef_180.png"" style= ""width:200px""alt=""img"">
                            </div>
                        </div>",0.385,"",0,"",NA,"","images/map26_Purples_scaleRev_orientDef_180.png","fearful",1,26,26,"Purples","orientDef","scaleRev","180",NA,NA
"","","","","","html-slider-response",110,451742,"0.0-106.0","3orduz4cxy",53,NA,"<div style=""width:500px;"">
                            <p style=""font-size:50px; font-weight:bold;""
                            >fearful</p>
                            <div style=""width:240px; margin: auto;"">
                                <img src=""images/map27_Oranges_scaleRev_orientDef_000.png"" style= ""width:200px""alt=""img"">
                            </div>
                        </div>",0.2625,"",0,"",NA,"","images/map27_Oranges_scaleRev_orientDef_000.png","fearful",1,27,27,"Oranges","orientDef","scaleRev","000",NA,NA
"","","","","","html-slider-response",111,453335,"0.0-107.0","3orduz4cxy",53,NA,"<div style=""width:500px;"">
                            <p style=""font-size:50px; font-weight:bold;""
                            >fearful</p>
                            <div style=""width:240px; margin: auto;"">
                                <img src=""images/map05_YlGnBu_scaleRev_orientMir_000.png"" style= ""width:200px""alt=""img"">
                            </div>
                        </div>",0.2875,"",0,"",NA,"","images/map05_YlGnBu_scaleRev_orientMir_000.png","fearful",1,5,5,"YlGnBu","orientMir","scaleRev","000",NA,NA
"","","","","","html-slider-response",112,455117,"0.0-108.0","3orduz4cxy",53,NA,"<div style=""width:500px;"">
                            <p style=""font-size:50px; font-weight:bold;""
                            >fearful</p>
                            <div style=""width:240px; margin: auto;"">
                                <img src=""images/map13_vanimo_scaleDef_orientMir_270.png"" style= ""width:200px""alt=""img"">
                            </div>
                        </div>",0.92,"",0,"",NA,"","images/map13_vanimo_scaleDef_orientMir_270.png","fearful",1,13,13,"vanimo","orientMir","scaleDef","270",NA,NA
"","","","","","html-slider-response",113,456910,"0.0-109.0","3orduz4cxy",53,NA,"<div style=""width:500px;"">
                            <p style=""font-size:50px; font-weight:bold;""
                            >fearful</p>
                            <div style=""width:240px; margin: auto;"">
                                <img src=""images/map27_OrRd_scaleDef_orientMir_270.png"" style= ""width:200px""alt=""img"">
                            </div>
                        </div>",0.255,"",0,"",NA,"","images/map27_OrRd_scaleDef_orientMir_270.png","fearful",1,27,27,"OrRd","orientMir","scaleDef","270",NA,NA
"","","","","","html-slider-response",114,458960,"0.0-110.0","3orduz4cxy",53,NA,"<div style=""width:500px;"">
                            <p style=""font-size:50px; font-weight:bold;""
                            >fearful</p>
                            <div style=""width:240px; margin: auto;"">
                                <img src=""images/map05_PuBuGn_scaleRev_orientMir_180.png"" style= ""width:200px""alt=""img"">
                            </div>
                        </div>",0.29,"",0,"",NA,"","images/map05_PuBuGn_scaleRev_orientMir_180.png","fearful",1,5,5,"PuBuGn","orientMir","scaleRev","180",NA,NA
"","","","","","html-slider-response",115,460539,"0.0-111.0","3orduz4cxy",53,NA,"<div style=""width:500px;"">
                            <p style=""font-size:50px; font-weight:bold;""
                            >fearful</p>
                            <div style=""width:240px; margin: auto;"">
                                <img src=""images/map07_PRGn_scaleDef_orientMir_090.png"" style= ""width:200px""alt=""img"">
                            </div>
                        </div>",0.8275,"",0,"",NA,"","images/map07_PRGn_scaleDef_orientMir_090.png","fearful",1,7,7,"PRGn","orientMir","scaleDef","090",NA,NA
"","","","","","html-slider-response",116,462206,"0.0-112.0","3orduz4cxy",53,NA,"<div style=""width:500px;"">
                            <p style=""font-size:50px; font-weight:bold;""
                            >fearful</p>
                            <div style=""width:240px; margin: auto;"">
                                <img src=""images/map05_GnBu_scaleRev_orientDef_000.png"" style= ""width:200px""alt=""img"">
                            </div>
                        </div>",0.24,"",0,"",NA,"","images/map05_GnBu_scaleRev_orientDef_000.png","fearful",1,5,5,"GnBu","orientDef","scaleRev","000",NA,NA
"","","","","","html-slider-response",117,466572,"0.0-113.0","3orduz4cxy",53,NA,"<div style=""width:500px;"">
                            <p style=""font-size:50px; font-weight:bold;""
                            >fearful</p>
                            <div style=""width:240px; margin: auto;"">
                                <img src=""images/map26_Oranges_scaleDef_orientMir_270.png"" style= ""width:200px""alt=""img"">
                            </div>
                        </div>",0.6875,"",0,"",NA,"","images/map26_Oranges_scaleDef_orientMir_270.png","fearful",1,26,26,"Oranges","orientMir","scaleDef","270",NA,NA
"","","","","","html-slider-response",118,468257,"0.0-114.0","3orduz4cxy",53,NA,"<div style=""width:500px;"">
                            <p style=""font-size:50px; font-weight:bold;""
                            >fearful</p>
                            <div style=""width:240px; margin: auto;"">
                                <img src=""images/map02_PuRd_scaleDef_orientDef_090.png"" style= ""width:200px""alt=""img"">
                            </div>
                        </div>",0.1575,"",0,"",NA,"","images/map02_PuRd_scaleDef_orientDef_090.png","fearful",1,2,2,"PuRd","orientDef","scaleDef","090",NA,NA
"","","","","","html-slider-response",119,470923,"0.0-115.0","3orduz4cxy",53,NA,"<div style=""width:500px;"">
                            <p style=""font-size:50px; font-weight:bold;""
                            >fearful</p>
                            <div style=""width:240px; margin: auto;"">
                                <img src=""images/map23_cividis_scaleDef_orientMir_090.png"" style= ""width:200px""alt=""img"">
                            </div>
                        </div>",0.395,"",0,"",NA,"","images/map23_cividis_scaleDef_orientMir_090.png","fearful",1,23,23,"cividis","orientMir","scaleDef","090",NA,NA
"","","","","","html-slider-response",120,472358,"0.0-116.0","3orduz4cxy",53,NA,"<div style=""width:500px;"">
                            <p style=""font-size:50px; font-weight:bold;""
                            >fearful</p>
                            <div style=""width:240px; margin: auto;"">
                                <img src=""images/map07_BuGn_scaleRev_orientDef_000.png"" style= ""width:200px""alt=""img"">
                            </div>
                        </div>",0.3525,"",0,"",NA,"","images/map07_BuGn_scaleRev_orientDef_000.png","fearful",1,7,7,"BuGn","orientDef","scaleRev","000",NA,NA
"","","","","","html-slider-response",121,473723,"0.0-117.0","3orduz4cxy",53,NA,"<div style=""width:500px;"">
                            <p style=""font-size:50px; font-weight:bold;""
                            >fearful</p>
                            <div style=""width:240px; margin: auto;"">
                                <img src=""images/map05_PuBu_scaleDef_orientDef_090.png"" style= ""width:200px""alt=""img"">
                            </div>
                        </div>",0.295,"",0,"",NA,"","images/map05_PuBu_scaleDef_orientDef_090.png","fearful",1,5,5,"PuBu","orientDef","scaleDef","090",NA,NA
"","","","","","html-slider-response",122,475306,"0.0-118.0","3orduz4cxy",53,NA,"<div style=""width:500px;"">
                            <p style=""font-size:50px; font-weight:bold;""
                            >fearful</p>
                            <div style=""width:240px; margin: auto;"">
                                <img src=""images/map13_seismic_scaleDef_orientDef_090.png"" style= ""width:200px""alt=""img"">
                            </div>
                        </div>",0.7725,"",0,"",NA,"","images/map13_seismic_scaleDef_orientDef_090.png","fearful",1,13,13,"seismic","orientDef","scaleDef","090",NA,NA
"","","","","","html-slider-response",123,476889,"0.0-119.0","3orduz4cxy",53,NA,"<div style=""width:500px;"">
                            <p style=""font-size:50px; font-weight:bold;""
                            >fearful</p>
                            <div style=""width:240px; margin: auto;"">
                                <img src=""images/map02_RdPu_scaleDef_orientDef_270.png"" style= ""width:200px""alt=""img"">
                            </div>
                        </div>",0.8575,"",0,"",NA,"","images/map02_RdPu_scaleDef_orientDef_270.png","fearful",1,2,2,"RdPu","orientDef","scaleDef","270",NA,NA
"","","","","","html-slider-response",124,478426,"0.0-120.0","3orduz4cxy",53,NA,"<div style=""width:500px;"">
                            <p style=""font-size:50px; font-weight:bold;""
                            >fearful</p>
                            <div style=""width:240px; margin: auto;"">
                                <img src=""images/map27_Reds_scaleRev_orientDef_180.png"" style= ""width:200px""alt=""img"">
                            </div>
                        </div>",0.295,"",0,"",NA,"","images/map27_Reds_scaleRev_orientDef_180.png","fearful",1,27,27,"Reds","orientDef","scaleRev","180",NA,NA
"","","","","","html-slider-response",125,479987,"0.0-121.0","3orduz4cxy",53,NA,"<div style=""width:500px;"">
                            <p style=""font-size:50px; font-weight:bold;""
                            >fearful</p>
                            <div style=""width:240px; margin: auto;"">
                                <img src=""images/map10_BrBG_scaleRev_orientDef_000.png"" style= ""width:200px""alt=""img"">
                            </div>
                        </div>",0.235,"",0,"",NA,"","images/map10_BrBG_scaleRev_orientDef_000.png","fearful",1,10,10,"BrBG","orientDef","scaleRev","000",NA,NA
"","","","","","html-slider-response",126,481464,"0.0-122.0","3orduz4cxy",53,NA,"<div style=""width:500px;"">
                            <p style=""font-size:50px; font-weight:bold;""
                            >fearful</p>
                            <div style=""width:240px; margin: auto;"">
                                <img src=""images/map13_berlin_scaleDef_orientDef_270.png"" style= ""width:200px""alt=""img"">
                            </div>
                        </div>",0.905,"",0,"",NA,"","images/map13_berlin_scaleDef_orientDef_270.png","fearful",1,13,13,"berlin","orientDef","scaleDef","270",NA,NA
"","","","","","html-slider-response",127,483071,"0.0-123.0","3orduz4cxy",53,NA,"<div style=""width:500px;"">
                            <p style=""font-size:50px; font-weight:bold;""
                            >fearful</p>
                            <div style=""width:240px; margin: auto;"">
                                <img src=""images/map23_cividis_scaleRev_orientMir_180.png"" style= ""width:200px""alt=""img"">
                            </div>
                        </div>",0.34,"",0,"",NA,"","images/map23_cividis_scaleRev_orientMir_180.png","fearful",1,23,23,"cividis","orientMir","scaleRev","180",NA,NA
"","","","","","html-slider-response",128,484441,"0.0-124.0","3orduz4cxy",53,NA,"<div style=""width:500px;"">
                            <p style=""font-size:50px; font-weight:bold;""
                            >fearful</p>
                            <div style=""width:240px; margin: auto;"">
                                <img src=""images/map10_RdGy_scaleDef_orientDef_270.png"" style= ""width:200px""alt=""img"">
                            </div>
                        </div>",0.8,"",0,"",NA,"","images/map10_RdGy_scaleDef_orientDef_270.png","fearful",1,10,10,"RdGy","orientDef","scaleDef","270",NA,NA
"","","","","","html-slider-response",129,486090,"0.0-125.0","3orduz4cxy",53,NA,"<div style=""width:500px;"">
                            <p style=""font-size:50px; font-weight:bold;""
                            >fearful</p>
                            <div style=""width:240px; margin: auto;"">
                                <img src=""images/map12_coolwarm_scaleDef_orientMir_090.png"" style= ""width:200px""alt=""img"">
                            </div>
                        </div>",0.7725,"",0,"",NA,"","images/map12_coolwarm_scaleDef_orientMir_090.png","fearful",1,12,12,"coolwarm","orientMir","scaleDef","090",NA,NA
"","","","","","html-slider-response",130,487528,"0.0-126.0","3orduz4cxy",53,NA,"<div style=""width:500px;"">
                            <p style=""font-size:50px; font-weight:bold;""
                            >fearful</p>
                            <div style=""width:240px; margin: auto;"">
                                <img src=""images/map27_Reds_scaleDef_orientDef_090.png"" style= ""width:200px""alt=""img"">
                            </div>
                        </div>",0.32,"",0,"",NA,"","images/map27_Reds_scaleDef_orientDef_090.png","fearful",1,27,27,"Reds","orientDef","scaleDef","090",NA,NA
"","","","","","html-slider-response",131,488907,"0.0-127.0","3orduz4cxy",53,NA,"<div style=""width:500px;"">
                            <p style=""font-size:50px; font-weight:bold;""
                            >fearful</p>
                            <div style=""width:240px; margin: auto;"">
                                <img src=""images/map10_PuOr_scaleRev_orientDef_180.png"" style= ""width:200px""alt=""img"">
                            </div>
                        </div>",0.7025,"",0,"",NA,"","images/map10_PuOr_scaleRev_orientDef_180.png","fearful",1,10,10,"PuOr","orientDef","scaleRev","180",NA,NA
"","","","","","html-slider-response",132,490745,"0.0-128.0","3orduz4cxy",53,NA,"<div style=""width:500px;"">
                            <p style=""font-size:50px; font-weight:bold;""
                            >fearful</p>
                            <div style=""width:240px; margin: auto;"">
                                <img src=""images/map23_magma_scaleDef_orientDef_270.png"" style= ""width:200px""alt=""img"">
                            </div>
                        </div>",0.735,"",0,"",NA,"","images/map23_magma_scaleDef_orientDef_270.png","fearful",1,23,23,"magma","orientDef","scaleDef","270",NA,NA
"","","","","","html-slider-response",133,492425,"0.0-129.0","3orduz4cxy",53,NA,"<div style=""width:500px;"">
                            <p style=""font-size:50px; font-weight:bold;""
                            >fearful</p>
                            <div style=""width:240px; margin: auto;"">
                                <img src=""images/map15_vanimo_scaleRev_orientDef_000.png"" style= ""width:200px""alt=""img"">
                            </div>
                        </div>",0.825,"",0,"",NA,"","images/map15_vanimo_scaleRev_orientDef_000.png","fearful",1,15,15,"vanimo","orientDef","scaleRev","000",NA,NA
"","","","","","html-slider-response",134,494070,"0.0-130.0","3orduz4cxy",53,NA,"<div style=""width:500px;"">
                            <p style=""font-size:50px; font-weight:bold;""
                            >fearful</p>
                            <div style=""width:240px; margin: auto;"">
                                <img src=""images/map26_Greys_scaleRev_orientDef_000.png"" style= ""width:200px""alt=""img"">
                            </div>
                        </div>",0.6525,"",0,"",NA,"","images/map26_Greys_scaleRev_orientDef_000.png","fearful",1,26,26,"Greys","orientDef","scaleRev","000",NA,NA
"","","","","","html-slider-response",135,496441,"0.0-131.0","3orduz4cxy",53,NA,"<div style=""width:500px;"">
                            <p style=""font-size:50px; font-weight:bold;""
                            >fearful</p>
                            <div style=""width:240px; margin: auto;"">
                                <img src=""images/map27_YlOrBr_scaleRev_orientMir_000.png"" style= ""width:200px""alt=""img"">
                            </div>
                        </div>",0.435,"",0,"",NA,"","images/map27_YlOrBr_scaleRev_orientMir_000.png","fearful",1,27,27,"YlOrBr","orientMir","scaleRev","000",NA,NA
"","","","","","html-slider-response",136,498089,"0.0-132.0","3orduz4cxy",53,NA,"<div style=""width:500px;"">
                            <p style=""font-size:50px; font-weight:bold;""
                            >fearful</p>
                            <div style=""width:240px; margin: auto;"">
                                <img src=""images/map26_Blues_scaleDef_orientDef_270.png"" style= ""width:200px""alt=""img"">
                            </div>
                        </div>",0.245,"",0,"",NA,"","images/map26_Blues_scaleDef_orientDef_270.png","fearful",1,26,26,"Blues","orientDef","scaleDef","270",NA,NA
"","","","","","html-slider-response",137,499657,"0.0-133.0","3orduz4cxy",53,NA,"<div style=""width:500px;"">
                            <p style=""font-size:50px; font-weight:bold;""
                            >fearful</p>
                            <div style=""width:240px; margin: auto;"">
                                <img src=""images/map10_RdBu_scaleDef_orientMir_090.png"" style= ""width:200px""alt=""img"">
                            </div>
                        </div>",0.7325,"",0,"",NA,"","images/map10_RdBu_scaleDef_orientMir_090.png","fearful",1,10,10,"RdBu","orientMir","scaleDef","090",NA,NA
"","","","","","html-slider-response",138,501089,"0.0-134.0","3orduz4cxy",53,NA,"<div style=""width:500px;"">
                            <p style=""font-size:50px; font-weight:bold;""
                            >fearful</p>
                            <div style=""width:240px; margin: auto;"">
                                <img src=""images/map15_turbo_scaleRev_orientMir_000.png"" style= ""width:200px""alt=""img"">
                            </div>
                        </div>",0.945,"",0,"",NA,"","images/map15_turbo_scaleRev_orientMir_000.png","fearful",1,15,15,"turbo","orientMir","scaleRev","000",NA,NA
"","","","","","html-slider-response",139,502680,"0.0-135.0","3orduz4cxy",53,NA,"<div style=""width:500px;"">
                            <p style=""font-size:50px; font-weight:bold;""
                            >fearful</p>
                            <div style=""width:240px; margin: auto;"">
                                <img src=""images/map15_viridis_scaleRev_orientMir_180.png"" style= ""width:200px""alt=""img"">
                            </div>
                        </div>",0.8625,"",0,"",NA,"","images/map15_viridis_scaleRev_orientMir_180.png","fearful",1,15,15,"viridis","orientMir","scaleRev","180",NA,NA
"","","","","","html-slider-response",140,504790,"0.0-136.0","3orduz4cxy",53,NA,"<div style=""width:500px;"">
                            <p style=""font-size:50px; font-weight:bold;""
                            >fearful</p>
                            <div style=""width:240px; margin: auto;"">
                                <img src=""images/map26_Greens_scaleRev_orientMir_180.png"" style= ""width:200px""alt=""img"">
                            </div>
                        </div>",0.4,"",0,"",NA,"","images/map26_Greens_scaleRev_orientMir_180.png","fearful",1,26,26,"Greens","orientMir","scaleRev","180",NA,NA
"","","","","","html-button-response",141,507471,"0.0-137.0","3orduz4cxy",53,2178,"<p>You are doing great!<br></br> You are halway done with the current block. When you are ready to continue, click the 'Continue' button.</p>",0.5,"",NA,"",NA,"","","",NA,NA,NA,"","","","",NA,NA
"","","","","","html-slider-response",142,509430,"0.0-138.0","3orduz4cxy",53,NA,"<div style=""width:500px;"">
                            <p style=""font-size:50px; font-weight:bold;""
                            >fearful</p>
                            <div style=""width:240px; margin: auto;"">
                                <img src=""images/map07_YlGn_scaleDef_orientDef_090.png"" style= ""width:200px""alt=""img"">
                            </div>
                        </div>",0.34,"",0,"",NA,"","images/map07_YlGn_scaleDef_orientDef_090.png","fearful",1,7,7,"YlGn","orientDef","scaleDef","090",NA,NA
"","","","","","html-slider-response",143,510902,"0.0-139.0","3orduz4cxy",53,NA,"<div style=""width:500px;"">
                            <p style=""font-size:50px; font-weight:bold;""
                            >fearful</p>
                            <div style=""width:240px; margin: auto;"">
                                <img src=""images/map07_PiYG_scaleRev_orientMir_000.png"" style= ""width:200px""alt=""img"">
                            </div>
                        </div>",0.8775,"",0,"",NA,"","images/map07_PiYG_scaleRev_orientMir_000.png","fearful",1,7,7,"PiYG","orientMir","scaleRev","000",NA,NA
"","","","","","html-slider-response",144,512488,"0.0-140.0","3orduz4cxy",53,NA,"<div style=""width:500px;"">
                            <p style=""font-size:50px; font-weight:bold;""
                            >fearful</p>
                            <div style=""width:240px; margin: auto;"">
                                <img src=""images/map12_RdYlBu_scaleRev_orientDef_000.png"" style= ""width:200px""alt=""img"">
                            </div>
                        </div>",0.335,"",0,"",NA,"","images/map12_RdYlBu_scaleRev_orientDef_000.png","fearful",1,12,12,"RdYlBu","orientDef","scaleRev","000",NA,NA
"","","","","","html-slider-response",145,514155,"0.0-141.0","3orduz4cxy",53,NA,"<div style=""width:500px;"">
                            <p style=""font-size:50px; font-weight:bold;""
                            >fearful</p>
                            <div style=""width:240px; margin: auto;"">
                                <img src=""images/map27_YlOrBr_scaleDef_orientDef_270.png"" style= ""width:200px""alt=""img"">
                            </div>
                        </div>",0.3125,"",0,"",NA,"","images/map27_YlOrBr_scaleDef_orientDef_270.png","fearful",1,27,27,"YlOrBr","orientDef","scaleDef","270",NA,NA
"","","","","","html-slider-response",146,515439,"0.0-142.0","3orduz4cxy",53,NA,"<div style=""width:500px;"">
                            <p style=""font-size:50px; font-weight:bold;""
                            >fearful</p>
                            <div style=""width:240px; margin: auto;"">
                                <img src=""images/map12_coolwarm_scaleRev_orientMir_180.png"" style= ""width:200px""alt=""img"">
                            </div>
                        </div>",0.755,"",0,"",NA,"","images/map12_coolwarm_scaleRev_orientMir_180.png","fearful",1,12,12,"coolwarm","orientMir","scaleRev","180",NA,NA
"","","","","","html-slider-response",147,516856,"0.0-143.0","3orduz4cxy",53,NA,"<div style=""width:500px;"">
                            <p style=""font-size:50px; font-weight:bold;""
                            >fearful</p>
                            <div style=""width:240px; margin: auto;"">
                                <img src=""images/map26_Purples_scaleDef_orientDef_090.png"" style= ""width:200px""alt=""img"">
                            </div>
                        </div>",0.4125,"",0,"",NA,"","images/map26_Purples_scaleDef_orientDef_090.png","fearful",1,26,26,"Purples","orientDef","scaleDef","090",NA,NA
"","","","","","html-slider-response",148,518282,"0.0-144.0","3orduz4cxy",53,NA,"<div style=""width:500px;"">
                            <p style=""font-size:50px; font-weight:bold;""
                            >fearful</p>
                            <div style=""width:240px; margin: auto;"">
                                <img src=""images/map27_YlOrRd_scaleRev_orientMir_180.png"" style= ""width:200px""alt=""img"">
                            </div>
                        </div>",0.33,"",0,"",NA,"","images/map27_YlOrRd_scaleRev_orientMir_180.png","fearful",1,27,27,"YlOrRd","orientMir","scaleRev","180",NA,NA
"","","","","","html-slider-response",149,519608,"0.0-145.0","3orduz4cxy",53,NA,"<div style=""width:500px;"">
                            <p style=""font-size:50px; font-weight:bold;""
                            >fearful</p>
                            <div style=""width:240px; margin: auto;"">
                                <img src=""images/map07_PRGn_scaleRev_orientMir_180.png"" style= ""width:200px""alt=""img"">
                            </div>
                        </div>",0.8325,"",0,"",NA,"","images/map07_PRGn_scaleRev_orientMir_180.png","fearful",1,7,7,"PRGn","orientMir","scaleRev","180",NA,NA
"","","","","","html-slider-response",150,520939,"0.0-146.0","3orduz4cxy",53,NA,"<div style=""width:500px;"">
                            <p style=""font-size:50px; font-weight:bold;""
                            >fearful</p>
                            <div style=""width:240px; margin: auto;"">
                                <img src=""images/map23_plasma_scaleRev_orientDef_000.png"" style= ""width:200px""alt=""img"">
                            </div>
                        </div>",0.885,"",0,"",NA,"","images/map23_plasma_scaleRev_orientDef_000.png","fearful",1,23,23,"plasma","orientDef","scaleRev","000",NA,NA
"","","","","","html-slider-response",151,522513,"0.0-147.0","3orduz4cxy",53,NA,"<div style=""width:500px;"">
                            <p style=""font-size:50px; font-weight:bold;""
                            >fearful</p>
                            <div style=""width:240px; margin: auto;"">
                                <img src=""images/map07_YlGn_scaleRev_orientDef_180.png"" style= ""width:200px""alt=""img"">
                            </div>
                        </div>",0.7425,"",0,"",NA,"","images/map07_YlGn_scaleRev_orientDef_180.png","fearful",1,7,7,"YlGn","orientDef","scaleRev","180",NA,NA
"","","","","","html-slider-response",152,523996,"0.0-148.0","3orduz4cxy",53,NA,"<div style=""width:500px;"">
                            <p style=""font-size:50px; font-weight:bold;""
                            >fearful</p>
                            <div style=""width:240px; margin: auto;"">
                                <img src=""images/map05_PuBuGn_scaleDef_orientMir_090.png"" style= ""width:200px""alt=""img"">
                            </div>
                        </div>",0.25,"",0,"",NA,"","images/map05_PuBuGn_scaleDef_orientMir_090.png","fearful",1,5,5,"PuBuGn","orientMir","scaleDef","090",NA,NA
"","","","","","html-slider-response",153,525520,"0.0-149.0","3orduz4cxy",53,NA,"<div style=""width:500px;"">
                            <p style=""font-size:50px; font-weight:bold;""
                            >fearful</p>
                            <div style=""width:240px; margin: auto;"">
                                <img src=""images/map12_Spectral_scaleDef_orientDef_270.png"" style= ""width:200px""alt=""img"">
                            </div>
                        </div>",0.87,"",0,"",NA,"","images/map12_Spectral_scaleDef_orientDef_270.png","fearful",1,12,12,"Spectral","orientDef","scaleDef","270",NA,NA
"","","","","","html-slider-response",154,526909,"0.0-150.0","3orduz4cxy",53,NA,"<div style=""width:500px;"">
                            <p style=""font-size:50px; font-weight:bold;""
                            >fearful</p>
                            <div style=""width:240px; margin: auto;"">
                                <img src=""images/map23_inferno_scaleRev_orientDef_180.png"" style= ""width:200px""alt=""img"">
                            </div>
                        </div>",0.955,"",0,"",NA,"","images/map23_inferno_scaleRev_orientDef_180.png","fearful",1,23,23,"inferno","orientDef","scaleRev","180",NA,NA
"","","","","","html-slider-response",155,528437,"0.0-151.0","3orduz4cxy",53,NA,"<div style=""width:500px;"">
                            <p style=""font-size:50px; font-weight:bold;""
                            >fearful</p>
                            <div style=""width:240px; margin: auto;"">
                                <img src=""images/map02_BuPu_scaleDef_orientMir_090.png"" style= ""width:200px""alt=""img"">
                            </div>
                        </div>",0.665,"",0,"",NA,"","images/map02_BuPu_scaleDef_orientMir_090.png","fearful",1,2,2,"BuPu","orientMir","scaleDef","090",NA,NA
"","","","","","html-slider-response",156,529705,"0.0-152.0","3orduz4cxy",53,NA,"<div style=""width:500px;"">
                            <p style=""font-size:50px; font-weight:bold;""
                            >fearful</p>
                            <div style=""width:240px; margin: auto;"">
                                <img src=""images/map13_bwr_scaleRev_orientDef_000.png"" style= ""width:200px""alt=""img"">
                            </div>
                        </div>",0.7875,"",0,"",NA,"","images/map13_bwr_scaleRev_orientDef_000.png","fearful",1,13,13,"bwr","orientDef","scaleRev","000",NA,NA
"","","","","","html-slider-response",157,531256,"0.0-153.0","3orduz4cxy",53,NA,"<div style=""width:500px;"">
                            <p style=""font-size:50px; font-weight:bold;""
                            >fearful</p>
                            <div style=""width:240px; margin: auto;"">
                                <img src=""images/map02_GnBu_scaleDef_orientMir_270.png"" style= ""width:200px""alt=""img"">
                            </div>
                        </div>",0.415,"",0,"",NA,"","images/map02_GnBu_scaleDef_orientMir_270.png","fearful",1,2,2,"GnBu","orientMir","scaleDef","270",NA,NA
"","","","","","html-slider-response",158,532740,"0.0-154.0","3orduz4cxy",53,NA,"<div style=""width:500px;"">
                            <p style=""font-size:50px; font-weight:bold;""
                            >fearful</p>
                            <div style=""width:240px; margin: auto;"">
                                <img src=""images/map13_seismic_scaleRev_orientDef_180.png"" style= ""width:200px""alt=""img"">
                            </div>
                        </div>",0.6625,"",0,"",NA,"","images/map13_seismic_scaleRev_orientDef_180.png","fearful",1,13,13,"seismic","orientDef","scaleRev","180",NA,NA
"","","","","","html-slider-response",159,537161,"0.0-155.0","3orduz4cxy",53,NA,"<div style=""width:500px;"">
                            <p style=""font-size:50px; font-weight:bold;""
                            >fearful</p>
                            <div style=""width:240px; margin: auto;"">
                                <img src=""images/map10_PuOr_scaleDef_orientDef_090.png"" style= ""width:200px""alt=""img"">
                            </div>
                        </div>",0.7025,"",0,"",NA,"","images/map10_PuOr_scaleDef_orientDef_090.png","fearful",1,10,10,"PuOr","orientDef","scaleDef","090",NA,NA
"","","","","","html-slider-response",160,538855,"0.0-156.0","3orduz4cxy",53,NA,"<div style=""width:500px;"">
                            <p style=""font-size:50px; font-weight:bold;""
                            >fearful</p>
                            <div style=""width:240px; margin: auto;"">
                                <img src=""images/map02_RdPu_scaleRev_orientMir_000.png"" style= ""width:200px""alt=""img"">
                            </div>
                        </div>",0.66,"",0,"",NA,"","images/map02_RdPu_scaleRev_orientMir_000.png","fearful",1,2,2,"RdPu","orientMir","scaleRev","000",NA,NA
"","","","","","html-slider-response",161,540130,"0.0-157.0","3orduz4cxy",53,NA,"<div style=""width:500px;"">
                            <p style=""font-size:50px; font-weight:bold;""
                            >fearful</p>
                            <div style=""width:240px; margin: auto;"">
                                <img src=""images/map13_managua_scaleRev_orientMir_180.png"" style= ""width:200px""alt=""img"">
                            </div>
