"success","timeout","failed_images","failed_audio","failed_video","trial_type","trial_index","time_elapsed","internal_node_id","subject_id","condition_num","rt","stimulus","response","question_order","slider_start","practiceTrial","practiceTrialNum","correct","image_path","concept","repetition","map_id","map_num","scale_name","orientation_code","mapping_code","rotation_code","ishihara_plate","correct_response"
"true","false","[]","[]","[]","preload",0,352,"0.0-0.0","c7755auwwr",45,NA,"",NA,"",NA,"",NA,"","","",NA,NA,NA,"","","","",NA,NA
"","","","","","html-button-response",1,16557526,"0.0-1.0","c7755auwwr",45,7953593,"Welcome to our experiment!<p>At the bottom of this screen, you will see a button that says ""Begin Experiment"".<br>Please only click that button when you are ready to complete the 30 minute experiment in one sitting.</p><p> Once you click that button, it will not be possible to restart the experiment.",0.5,"",NA,"",NA,"","","",NA,NA,NA,"","","","",NA,NA
"true","","","","","fullscreen",2,16566728,"0.0-2.0","c7755auwwr",45,8195,"",NA,"",NA,"",NA,"","","",NA,NA,NA,"","","","",NA,NA
"","","","","","survey-multi-select",3,16604077,"0.0-3.0","c7755auwwr",45,37344,"",NA,"[0]",NA,"",NA,"","","",NA,NA,NA,"","","","",NA,NA
"","","","","","html-button-response",4,16626006,"0.0-4.0","c7755auwwr",45,21927,"Welcome! <p> This experiment involves two parts: demographic information, followed by the experimental task.<p> It will take about 30 minutes to complete both parts.",0.5,"",NA,"",NA,"","","",NA,NA,NA,"","","","",NA,NA
"","","","","","survey-text",5,16644593,"0.0-5.0","c7755auwwr",45,18572,"",NA,"",NA,"",NA,"","","",NA,NA,NA,"","","","",NA,NA
"","","","","","html-slider-response",6,16738054,"0.0-6.0","c7755auwwr",45,93457,"<div style='text-align:left; font-size:20px; line-height:25px; width: 1000px;'>
                                During this experiment you will be asked to rate how much you associate maps with                    different concepts.<br> Below, you can see some examples of the maps you will be asked to rate. Above the maps
                    is the list of concepts.<br>You will be asked                    to rate how much you associate each map with each concept on a scale from 'not at all' to 'very much' like the
                    one below. <br><br>
                    Now, please look at the list of concepts and maps. For each concept, think about the map you associate 'very
                    much' with the concept.<br>                     When you see that map during the experiment, please rate it near the 'very much' endpoint of the
                    scale.<br>Now, please think about which map you associate 'not at all'                     with each concept. When you see that map during the experiment, please rate it near the 'not at all' endpoint
                    of the scale.<br>
                    Please use the full range of the scale. That is, if a map is somewhat associated with the concept, you would
                    click partway between the middle point and right side of the scale.                    You will be asked to rate each map for a given concept before moving on to the next concept.<br>Press the
                    'Continue' button for instructions on how to use the slider.                    <br>
                </div>

                <div style=""width: 500px; margin: 0 auto;"">
                    <!-- Centered text paragraphs -->
                    <div style=""text-align: center; width: 500px;"">
                        <p style=""font-size:25px; line-height:15px;"">
                            fearful&nbsp;&nbsp;&nbsp;&nbsp;
                            disgust&nbsp;&nbsp;&nbsp;&nbsp;
                            happy&nbsp;&nbsp;&nbsp;&nbsp;
                            sad&nbsp;&nbsp;&nbsp;&nbsp;
                            angry
                        </p>
                        <!-- <p style=""font-size:20px; line-height:15px;"">disgust</p>
                        <p style=""font-size:20px;line-height:15px;"">happy</p>
                        <p style=""font-size:20px;line-height:15px;"">sad</p>
                        <p style=""font-size:20px;line-height:15px;"">angry</p> -->
                    </div>
            

                    <!-- Grid section -->
                   <div style=""display: flex; justify-content: center; padding-top: 15px;"">
                    <div style=""display: grid; grid-template-columns: repeat(10, 55px); grid-gap: 5px; width: auto;"">
                        <img src=""images/map26_Oranges_scaleRev_orientDef_000.png"" alt=""map"" style=""width: 100%;""><img src=""images/map10_RdYlGn_scaleDef_orientDef_090.png"" alt=""map"" style=""width: 100%;""><img src=""images/map23_Blues_scaleRev_orientMir_000.png"" alt=""map"" style=""width: 100%;""><img src=""images/map05_BuGn_scaleRev_orientDef_000.png"" alt=""map"" style=""width: 100%;""><img src=""images/map15_magma_scaleRev_orientMir_000.png"" alt=""map"" style=""width: 100%;""><img src=""images/map07_RdGy_scaleRev_orientMir_000.png"" alt=""map"" style=""width: 100%;""><img src=""images/map23_Purples_scaleRev_orientDef_180.png"" alt=""map"" style=""width: 100%;""><img src=""images/map12_seismic_scaleDef_orientDef_090.png"" alt=""map"" style=""width: 100%;""><img src=""images/map12_managua_scaleRev_orientMir_180.png"" alt=""map"" style=""width: 100%;""><img src=""images/map13_viridis_scaleDef_orientMir_090.png"" alt=""map"" style=""width: 100%;""><img src=""images/map13_vanimo_scaleRev_orientDef_000.png"" alt=""map"" style=""width: 100%;""><img src=""images/map02_GnBu_scaleRev_orientDef_000.png"" alt=""map"" style=""width: 100%;""><img src=""images/map07_RdBu_scaleDef_orientMir_090.png"" alt=""map"" style=""width: 100%;""><img src=""images/map10_coolwarm_scaleDef_orientMir_090.png"" alt=""map"" style=""width: 100%;""><img src=""images/map12_berlin_scaleRev_orientMir_000.png"" alt=""map"" style=""width: 100%;""><img src=""images/map26_YlOrBr_scaleRev_orientMir_000.png"" alt=""map"" style=""width: 100%;""><img src=""images/map27_PuRd_scaleRev_orientDef_180.png"" alt=""map"" style=""width: 100%;""><img src=""images/map23_Greens_scaleRev_orientMir_180.png"" alt=""map"" style=""width: 100%;""><img src=""images/map13_gist_earth_scaleRev_orientDef_180.png"" alt=""map"" style=""width: 100%;""><img src=""images/map05_PRGn_scaleRev_orientMir_180.png"" alt=""map"" style=""width: 100%;""><img src=""images/map02_PuBuGn_scaleDef_orientMir_090.png"" alt=""map"" style=""width: 100%;""><img src=""images/map26_YlOrRd_scaleDef_orientMir_090.png"" alt=""map"" style=""width: 100%;""><img src=""images/map15_cividis_scaleDef_orientMir_090.png"" alt=""map"" style=""width: 100%;""><img src=""images/map05_YlGn_scaleRev_orientDef_180.png"" alt=""map"" style=""width: 100%;""><img src=""images/map10_Spectral_scaleRev_orientMir_000.png"" alt=""map"" style=""width: 100%;""><img src=""images/map23_Greys_scaleRev_orientDef_000.png"" alt=""map"" style=""width: 100%;""><img src=""images/map07_PuOr_scaleDef_orientDef_090.png"" alt=""map"" style=""width: 100%;""><img src=""images/map15_plasma_scaleRev_orientDef_000.png"" alt=""map"" style=""width: 100%;""><img src=""images/map05_BrBG_scaleDef_orientMir_270.png"" alt=""map"" style=""width: 100%;""><img src=""images/map15_inferno_scaleRev_orientDef_180.png"" alt=""map"" style=""width: 100%;""><img src=""images/map12_bwr_scaleRev_orientDef_000.png"" alt=""map"" style=""width: 100%;""><img src=""images/map02_YlGnBu_scaleRev_orientMir_000.png"" alt=""map"" style=""width: 100%;""><img src=""images/map27_OrRd_scaleRev_orientDef_000.png"" alt=""map"" style=""width: 100%;""><img src=""images/map13_turbo_scaleRev_orientMir_000.png"" alt=""map"" style=""width: 100%;""><img src=""images/map07_RdYlBu_scaleDef_orientMir_270.png"" alt=""map"" style=""width: 100%;""><img src=""images/map27_BuPu_scaleRev_orientMir_180.png"" alt=""map"" style=""width: 100%;""><img src=""images/map27_RdPu_scaleDef_orientDef_270.png"" alt=""map"" style=""width: 100%;""><img src=""images/map02_PuBu_scaleDef_orientDef_090.png"" alt=""map"" style=""width: 100%;""><img src=""images/map26_Reds_scaleDef_orientDef_090.png"" alt=""map"" style=""width: 100%;""><img src=""images/map05_PiYG_scaleDef_orientDef_270.png"" alt=""map"" style=""width: 100%;"">
                    </div>
                </div>

                    <!-- Clear floats -->
                    <div style=""clear: both;""></div>
                </div>
                            ",NA,"",0,"true",NA,"","","",NA,NA,NA,"","","","",NA,NA
"","","","","","html-button-response",7,16754188,"0.0-7.0","c7755auwwr",45,16135,"<div style=""width:800px;""><p style=""text-align:left"">To move the slider, click and drag your cursor to the location of the scale where you would like to make your rating and then let go. When you let go of the slider, your response will be recorded and the next trial will begin. <br>
                    We are interested in your initial impressions of each map for the given concept, so please go with your first intuition. <br>
                    Before you begin the experiment, there will be four training trials for you to practice using the scale. <br>
                     When you are ready to start the training trials, please click ""Continue"".</p><br></div>",0.5,"",NA,"",NA,"","","",NA,NA,NA,"","","","",NA,NA
"","","","","","html-slider-response",8,16758333,"0.0-8.0-0.0","c7755auwwr",45,NA,"<div style=""width:500px;"">
                                    <p style=""font-size:25px;"">Please move the slider all the way to the <br> right endpoint of the scale</p>

                                    </div>
                                </div>",1,"",0,"true",0,"true","","",NA,NA,NA,"","","","",NA,NA
"","","","","","html-button-response",9,16760422,"0.0-8.0-1.0","c7755auwwr",45,1586,"<p align='center'><b>Good job!</b> Click on 'Continue' to proceed.</p>",0.5,"",NA,"",NA,"","","",NA,NA,NA,"","","","",NA,NA
"","","","","","html-slider-response",10,16762935,"0.0-9.0-0.0","c7755auwwr",45,NA,"<div style=""width:500px;"">
                                    <p style=""font-size:25px;"">Please move the slider all the way to the <br> left endpoint of the scale</p>

                                    </div>
                                </div>",0,"",0,"true",1,"true","","",NA,NA,NA,"","","","",NA,NA
"","","","","","html-button-response",11,16764422,"0.0-9.0-1.0","c7755auwwr",45,985,"<p align='center'><b>Good job!</b> Click on 'Continue' to proceed.</p>",0.5,"",NA,"",NA,"","","",NA,NA,NA,"","","","",NA,NA
"","","","","","html-slider-response",12,16769931,"0.0-10.0-0.0","c7755auwwr",45,NA,"<div style=""width:500px;"">
                                    <p style=""font-size:25px;"">Please move the slider halfway between the center and right endpoint of the scale</p>

                                    </div>
                                </div>",0.73,"",0,"true",2,"true","","",NA,NA,NA,"","","","",NA,NA
"","","","","","html-button-response",13,16771357,"0.0-10.0-1.0","c7755auwwr",45,924,"<p align='center'><b>Good job!</b> Click on 'Continue' to proceed.</p>",0.5,"",NA,"",NA,"","","",NA,NA,NA,"","","","",NA,NA
"","","","","","html-slider-response",14,16773467,"0.0-11.0-0.0","c7755auwwr",45,NA,"<div style=""width:500px;"">
                                    <p style=""font-size:25px;"">Please move the slider halfway between the center and left endpoint of the scale</p>

                                    </div>
                                </div>",0.235,"",0,"true",3,"true","","",NA,NA,NA,"","","","",NA,NA
"","","","","","html-button-response",15,16774806,"0.0-11.0-1.0","c7755auwwr",45,837,"<p align='center'><b>Good job!</b> Click on 'Continue' to proceed.</p>",0.5,"",NA,"",NA,"","","",NA,NA,NA,"","","","",NA,NA
"","","","","","html-button-response",16,16777455,"0.0-12.0","c7755auwwr",45,2648,"<p>Great job! You've completed the practice trials. Now you will begin the main task.</p>",0.5,"",NA,"",NA,"","","",NA,NA,NA,"","","","",NA,NA
"","","","","","html-button-response",17,16785172,"0.0-13.0","c7755auwwr",45,7715,"<p>In this block of trials, you will be asked to rate how much you associate each map with:</p > <p style = 'font-size:150%; font-weight: bold'>fearful</p><br></br>",0.5,"",NA,"",NA,"","","",NA,NA,NA,"","","","",NA,NA
"","","","","","html-slider-response",18,16787898,"0.0-14.0","c7755auwwr",45,NA,"<div style=""width:500px;"">
                            <p style=""font-size:50px; font-weight:bold;""
                            >fearful</p>
                            <div style=""width:240px; margin: auto;"">
                                <img src=""images/map26_YlOrRd_scaleRev_orientMir_180.png"" style= ""width:200px""alt=""img"">
                            </div>
                        </div>",1,"",0,"",NA,"","images/map26_YlOrRd_scaleRev_orientMir_180.png","fearful",1,26,26,"YlOrRd","orientMir","scaleRev","180",NA,NA
"","","","","","html-slider-response",19,16792232,"0.0-15.0","c7755auwwr",45,NA,"<div style=""width:500px;"">
                            <p style=""font-size:50px; font-weight:bold;""
                            >fearful</p>
                            <div style=""width:240px; margin: auto;"">
                                <img src=""images/map07_PuOr_scaleRev_orientDef_180.png"" style= ""width:200px""alt=""img"">
                            </div>
                        </div>",0.56,"",0,"",NA,"","images/map07_PuOr_scaleRev_orientDef_180.png","fearful",1,7,7,"PuOr","orientDef","scaleRev","180",NA,NA
"","","","","","html-slider-response",20,16796699,"0.0-16.0","c7755auwwr",45,NA,"<div style=""width:500px;"">
                            <p style=""font-size:50px; font-weight:bold;""
                            >fearful</p>
                            <div style=""width:240px; margin: auto;"">
                                <img src=""images/map23_Greys_scaleRev_orientDef_000.png"" style= ""width:200px""alt=""img"">
                            </div>
                        </div>",0.675,"",0,"",NA,"","images/map23_Greys_scaleRev_orientDef_000.png","fearful",1,23,23,"Greys","orientDef","scaleRev","000",NA,NA
"","","","","","html-slider-response",21,16799465,"0.0-17.0","c7755auwwr",45,NA,"<div style=""width:500px;"">
                            <p style=""font-size:50px; font-weight:bold;""
                            >fearful</p>
                            <div style=""width:240px; margin: auto;"">
                                <img src=""images/map05_PiYG_scaleDef_orientDef_270.png"" style= ""width:200px""alt=""img"">
                            </div>
                        </div>",0.1375,"",0,"",NA,"","images/map05_PiYG_scaleDef_orientDef_270.png","fearful",1,5,5,"PiYG","orientDef","scaleDef","270",NA,NA
"","","","","","html-slider-response",22,16805217,"0.0-18.0","c7755auwwr",45,NA,"<div style=""width:500px;"">
                            <p style=""font-size:50px; font-weight:bold;""
                            >fearful</p>
                            <div style=""width:240px; margin: auto;"">
                                <img src=""images/map12_berlin_scaleDef_orientDef_270.png"" style= ""width:200px""alt=""img"">
                            </div>
                        </div>",0.595,"",0,"",NA,"","images/map12_berlin_scaleDef_orientDef_270.png","fearful",1,12,12,"berlin","orientDef","scaleDef","270",NA,NA
"","","","","","html-slider-response",23,16808284,"0.0-19.0","c7755auwwr",45,NA,"<div style=""width:500px;"">
                            <p style=""font-size:50px; font-weight:bold;""
                            >fearful</p>
                            <div style=""width:240px; margin: auto;"">
                                <img src=""images/map15_plasma_scaleRev_orientDef_000.png"" style= ""width:200px""alt=""img"">
                            </div>
                        </div>",0.7925,"",0,"",NA,"","images/map15_plasma_scaleRev_orientDef_000.png","fearful",1,15,15,"plasma","orientDef","scaleRev","000",NA,NA
"","","","","","html-slider-response",24,16813448,"0.0-20.0","c7755auwwr",45,NA,"<div style=""width:500px;"">
                            <p style=""font-size:50px; font-weight:bold;""
                            >fearful</p>
                            <div style=""width:240px; margin: auto;"">
                                <img src=""images/map02_YlGnBu_scaleDef_orientDef_270.png"" style= ""width:200px""alt=""img"">
                            </div>
                        </div>",0.405,"",0,"",NA,"","images/map02_YlGnBu_scaleDef_orientDef_270.png","fearful",1,2,2,"YlGnBu","orientDef","scaleDef","270",NA,NA
"","","","","","html-slider-response",25,16815599,"0.0-21.0","c7755auwwr",45,NA,"<div style=""width:500px;"">
                            <p style=""font-size:50px; font-weight:bold;""
                            >fearful</p>
                            <div style=""width:240px; margin: auto;"">
                                <img src=""images/map05_PiYG_scaleRev_orientMir_000.png"" style= ""width:200px""alt=""img"">
                            </div>
                        </div>",0.235,"",0,"",NA,"","images/map05_PiYG_scaleRev_orientMir_000.png","fearful",1,5,5,"PiYG","orientMir","scaleRev","000",NA,NA
"","","","","","html-slider-response",26,16819616,"0.0-22.0","c7755auwwr",45,NA,"<div style=""width:500px;"">
                            <p style=""font-size:50px; font-weight:bold;""
                            >fearful</p>
                            <div style=""width:240px; margin: auto;"">
                                <img src=""images/map27_RdPu_scaleRev_orientMir_000.png"" style= ""width:200px""alt=""img"">
                            </div>
                        </div>",0.295,"",0,"",NA,"","images/map27_RdPu_scaleRev_orientMir_000.png","fearful",1,27,27,"RdPu","orientMir","scaleRev","000",NA,NA
"","","","","","html-slider-response",27,16822249,"0.0-23.0","c7755auwwr",45,NA,"<div style=""width:500px;"">
                            <p style=""font-size:50px; font-weight:bold;""
                            >fearful</p>
                            <div style=""width:240px; margin: auto;"">
                                <img src=""images/map26_YlOrBr_scaleDef_orientDef_270.png"" style= ""width:200px""alt=""img"">
                            </div>
                        </div>",0.845,"",0,"",NA,"","images/map26_YlOrBr_scaleDef_orientDef_270.png","fearful",1,26,26,"YlOrBr","orientDef","scaleDef","270",NA,NA
"","","","","","html-slider-response",28,16824799,"0.0-24.0","c7755auwwr",45,NA,"<div style=""width:500px;"">
                            <p style=""font-size:50px; font-weight:bold;""
                            >fearful</p>
                            <div style=""width:240px; margin: auto;"">
                                <img src=""images/map15_cividis_scaleRev_orientMir_180.png"" style= ""width:200px""alt=""img"">
                            </div>
                        </div>",0.28,"",0,"",NA,"","images/map15_cividis_scaleRev_orientMir_180.png","fearful",1,15,15,"cividis","orientMir","scaleRev","180",NA,NA
"","","","","","html-slider-response",29,16827983,"0.0-25.0","c7755auwwr",45,NA,"<div style=""width:500px;"">
                            <p style=""font-size:50px; font-weight:bold;""
                            >fearful</p>
                            <div style=""width:240px; margin: auto;"">
                                <img src=""images/map13_turbo_scaleDef_orientDef_270.png"" style= ""width:200px""alt=""img"">
                            </div>
                        </div>",0,"",0,"",NA,"","images/map13_turbo_scaleDef_orientDef_270.png","fearful",1,13,13,"turbo","orientDef","scaleDef","270",NA,NA
"","","","","","html-slider-response",30,16832466,"0.0-26.0","c7755auwwr",45,NA,"<div style=""width:500px;"">
                            <p style=""font-size:50px; font-weight:bold;""
                            >fearful</p>
                            <div style=""width:240px; margin: auto;"">
                                <img src=""images/map27_GnBu_scaleDef_orientMir_270.png"" style= ""width:200px""alt=""img"">
                            </div>
                        </div>",0.14,"",0,"",NA,"","images/map27_GnBu_scaleDef_orientMir_270.png","fearful",1,27,27,"GnBu","orientMir","scaleDef","270",NA,NA
"","","","","","html-slider-response",31,16836632,"0.0-27.0","c7755auwwr",45,NA,"<div style=""width:500px;"">
                            <p style=""font-size:50px; font-weight:bold;""
                            >fearful</p>
                            <div style=""width:240px; margin: auto;"">
                                <img src=""images/map02_PuBuGn_scaleDef_orientMir_090.png"" style= ""width:200px""alt=""img"">
                            </div>
                        </div>",0,"",0,"",NA,"","images/map02_PuBuGn_scaleDef_orientMir_090.png","fearful",1,2,2,"PuBuGn","orientMir","scaleDef","090",NA,NA
"","","","","","html-slider-response",32,16840932,"0.0-28.0","c7755auwwr",45,NA,"<div style=""width:500px;"">
                            <p style=""font-size:50px; font-weight:bold;""
                            >fearful</p>
                            <div style=""width:240px; margin: auto;"">
                                <img src=""images/map26_Reds_scaleDef_orientDef_090.png"" style= ""width:200px""alt=""img"">
                            </div>
                        </div>",0.605,"",0,"",NA,"","images/map26_Reds_scaleDef_orientDef_090.png","fearful",1,26,26,"Reds","orientDef","scaleDef","090",NA,NA
"","","","","","html-slider-response",33,16844665,"0.0-29.0","c7755auwwr",45,NA,"<div style=""width:500px;"">
                            <p style=""font-size:50px; font-weight:bold;""
                            >fearful</p>
                            <div style=""width:240px; margin: auto;"">
                                <img src=""images/map12_vanimo_scaleDef_orientMir_270.png"" style= ""width:200px""alt=""img"">
                            </div>
                        </div>",0.235,"",0,"",NA,"","images/map12_vanimo_scaleDef_orientMir_270.png","fearful",1,12,12,"vanimo","orientMir","scaleDef","270",NA,NA
"","","","","","html-slider-response",34,16849583,"0.0-30.0","c7755auwwr",45,NA,"<div style=""width:500px;"">
                            <p style=""font-size:50px; font-weight:bold;""
                            >fearful</p>
                            <div style=""width:240px; margin: auto;"">
                                <img src=""images/map07_RdGy_scaleDef_orientDef_270.png"" style= ""width:200px""alt=""img"">
                            </div>
                        </div>",0.625,"",0,"",NA,"","images/map07_RdGy_scaleDef_orientDef_270.png","fearful",1,7,7,"RdGy","orientDef","scaleDef","270",NA,NA
"","","","","","html-slider-response",35,16852931,"0.0-31.0","c7755auwwr",45,NA,"<div style=""width:500px;"">
                            <p style=""font-size:50px; font-weight:bold;""
                            >fearful</p>
                            <div style=""width:240px; margin: auto;"">
                                <img src=""images/map27_BuPu_scaleRev_orientMir_180.png"" style= ""width:200px""alt=""img"">
                            </div>
                        </div>",0.5925,"",0,"",NA,"","images/map27_BuPu_scaleRev_orientMir_180.png","fearful",1,27,27,"BuPu","orientMir","scaleRev","180",NA,NA
"","","","","","html-slider-response",36,16855765,"0.0-32.0","c7755auwwr",45,NA,"<div style=""width:500px;"">
                            <p style=""font-size:50px; font-weight:bold;""
                            >fearful</p>
                            <div style=""width:240px; margin: auto;"">
                                <img src=""images/map02_PuBu_scaleRev_orientDef_180.png"" style= ""width:200px""alt=""img"">
                            </div>
                        </div>",0.4375,"",0,"",NA,"","images/map02_PuBu_scaleRev_orientDef_180.png","fearful",1,2,2,"PuBu","orientDef","scaleRev","180",NA,NA
"","","","","","html-slider-response",37,16858365,"0.0-33.0","c7755auwwr",45,NA,"<div style=""width:500px;"">
                            <p style=""font-size:50px; font-weight:bold;""
                            >fearful</p>
                            <div style=""width:240px; margin: auto;"">
                                <img src=""images/map02_PuBuGn_scaleRev_orientMir_180.png"" style= ""width:200px""alt=""img"">
                            </div>
                        </div>",0.435,"",0,"",NA,"","images/map02_PuBuGn_scaleRev_orientMir_180.png","fearful",1,2,2,"PuBuGn","orientMir","scaleRev","180",NA,NA
"","","","","","html-slider-response",38,16861299,"0.0-34.0","c7755auwwr",45,NA,"<div style=""width:500px;"">
                            <p style=""font-size:50px; font-weight:bold;""
                            >fearful</p>
                            <div style=""width:240px; margin: auto;"">
                                <img src=""images/map12_seismic_scaleRev_orientDef_180.png"" style= ""width:200px""alt=""img"">
                            </div>
                        </div>",0.6725,"",0,"",NA,"","images/map12_seismic_scaleRev_orientDef_180.png","fearful",1,12,12,"seismic","orientDef","scaleRev","180",NA,NA
"","","","","","html-slider-response",39,16863683,"0.0-35.0","c7755auwwr",45,NA,"<div style=""width:500px;"">
                            <p style=""font-size:50px; font-weight:bold;""
                            >fearful</p>
                            <div style=""width:240px; margin: auto;"">
                                <img src=""images/map07_RdBu_scaleRev_orientMir_180.png"" style= ""width:200px""alt=""img"">
                            </div>
                        </div>",0.6425,"",0,"",NA,"","images/map07_RdBu_scaleRev_orientMir_180.png","fearful",1,7,7,"RdBu","orientMir","scaleRev","180",NA,NA
"","","","","","html-slider-response",40,16865766,"0.0-36.0","c7755auwwr",45,NA,"<div style=""width:500px;"">
                            <p style=""font-size:50px; font-weight:bold;""
                            >fearful</p>
                            <div style=""width:240px; margin: auto;"">
                                <img src=""images/map26_Oranges_scaleRev_orientDef_000.png"" style= ""width:200px""alt=""img"">
                            </div>
                        </div>",0.875,"",0,"",NA,"","images/map26_Oranges_scaleRev_orientDef_000.png","fearful",1,26,26,"Oranges","orientDef","scaleRev","000",NA,NA
"","","","","","html-slider-response",41,16871749,"0.0-37.0","c7755auwwr",45,NA,"<div style=""width:500px;"">
                            <p style=""font-size:50px; font-weight:bold;""
                            >fearful</p>
                            <div style=""width:240px; margin: auto;"">
                                <img src=""images/map07_RdYlBu_scaleDef_orientMir_270.png"" style= ""width:200px""alt=""img"">
                            </div>
                        </div>",0.55,"",0,"",NA,"","images/map07_RdYlBu_scaleDef_orientMir_270.png","fearful",1,7,7,"RdYlBu","orientMir","scaleDef","270",NA,NA
"","","","","","html-slider-response",42,16878432,"0.0-38.0","c7755auwwr",45,NA,"<div style=""width:500px;"">
                            <p style=""font-size:50px; font-weight:bold;""
                            >fearful</p>
                            <div style=""width:240px; margin: auto;"">
                                <img src=""images/map10_RdYlBu_scaleRev_orientDef_000.png"" style= ""width:200px""alt=""img"">
                            </div>
                        </div>",0.2425,"",0,"",NA,"","images/map10_RdYlBu_scaleRev_orientDef_000.png","fearful",1,10,10,"RdYlBu","orientDef","scaleRev","000",NA,NA
"","","","","","html-slider-response",43,16881232,"0.0-39.0","c7755auwwr",45,NA,"<div style=""width:500px;"">
                            <p style=""font-size:50px; font-weight:bold;""
                            >fearful</p>
                            <div style=""width:240px; margin: auto;"">
                                <img src=""images/map05_YlGn_scaleRev_orientDef_180.png"" style= ""width:200px""alt=""img"">
                            </div>
                        </div>",0.015,"",0,"",NA,"","images/map05_YlGn_scaleRev_orientDef_180.png","fearful",1,5,5,"YlGn","orientDef","scaleRev","180",NA,NA
"","","","","","html-slider-response",44,16885082,"0.0-40.0","c7755auwwr",45,NA,"<div style=""width:500px;"">
                            <p style=""font-size:50px; font-weight:bold;""
                            >fearful</p>
                            <div style=""width:240px; margin: auto;"">
                                <img src=""images/map12_seismic_scaleDef_orientDef_090.png"" style= ""width:200px""alt=""img"">
                            </div>
                        </div>",0.2425,"",0,"",NA,"","images/map12_seismic_scaleDef_orientDef_090.png","fearful",1,12,12,"seismic","orientDef","scaleDef","090",NA,NA
"","","","","","html-slider-response",45,16887349,"0.0-41.0","c7755auwwr",45,NA,"<div style=""width:500px;"">
                            <p style=""font-size:50px; font-weight:bold;""
                            >fearful</p>
                            <div style=""width:240px; margin: auto;"">
                                <img src=""images/map15_magma_scaleDef_orientDef_270.png"" style= ""width:200px""alt=""img"">
                            </div>
                        </div>",0.7725,"",0,"",NA,"","images/map15_magma_scaleDef_orientDef_270.png","fearful",1,15,15,"magma","orientDef","scaleDef","270",NA,NA
"","","","","","html-slider-response",46,16889566,"0.0-42.0","c7755auwwr",45,NA,"<div style=""width:500px;"">
                            <p style=""font-size:50px; font-weight:bold;""
                            >fearful</p>
                            <div style=""width:240px; margin: auto;"">
                                <img src=""images/map05_YlGn_scaleDef_orientDef_090.png"" style= ""width:200px""alt=""img"">
                            </div>
                        </div>",0.2525,"",0,"",NA,"","images/map05_YlGn_scaleDef_orientDef_090.png","fearful",1,5,5,"YlGn","orientDef","scaleDef","090",NA,NA
"","","","","","html-slider-response",47,16892814,"0.0-43.0","c7755auwwr",45,NA,"<div style=""width:500px;"">
                            <p style=""font-size:50px; font-weight:bold;""
                            >fearful</p>
                            <div style=""width:240px; margin: auto;"">
                                <img src=""images/map23_Blues_scaleRev_orientMir_000.png"" style= ""width:200px""alt=""img"">
                            </div>
                        </div>",0.1925,"",0,"",NA,"","images/map23_Blues_scaleRev_orientMir_000.png","fearful",1,23,23,"Blues","orientMir","scaleRev","000",NA,NA
"","","","","","html-slider-response",48,16896133,"0.0-44.0","c7755auwwr",45,NA,"<div style=""width:500px;"">
                            <p style=""font-size:50px; font-weight:bold;""
                            >fearful</p>
                            <div style=""width:240px; margin: auto;"">
                                <img src=""images/map10_RdYlGn_scaleRev_orientDef_180.png"" style= ""width:200px""alt=""img"">
                            </div>
                        </div>",0.8625,"",0,"",NA,"","images/map10_RdYlGn_scaleRev_orientDef_180.png","fearful",1,10,10,"RdYlGn","orientDef","scaleRev","180",NA,NA
"","","","","","html-slider-response",49,16898547,"0.0-45.0","c7755auwwr",45,NA,"<div style=""width:500px;"">
                            <p style=""font-size:50px; font-weight:bold;""
                            >fearful</p>
                            <div style=""width:240px; margin: auto;"">
                                <img src=""images/map23_Greens_scaleDef_orientMir_090.png"" style= ""width:200px""alt=""img"">
                            </div>
                        </div>",0.23,"",0,"",NA,"","images/map23_Greens_scaleDef_orientMir_090.png","fearful",1,23,23,"Greens","orientMir","scaleDef","090",NA,NA
"","","","","","html-slider-response",50,16902316,"0.0-46.0","c7755auwwr",45,NA,"<div style=""width:500px;"">
                            <p style=""font-size:50px; font-weight:bold;""
                            >fearful</p>
                            <div style=""width:240px; margin: auto;"">
                                <img src=""images/map26_OrRd_scaleDef_orientMir_270.png"" style= ""width:200px""alt=""img"">
                            </div>
                        </div>",0.8525,"",0,"",NA,"","images/map26_OrRd_scaleDef_orientMir_270.png","fearful",1,26,26,"OrRd","orientMir","scaleDef","270",NA,NA
"","","","","","html-slider-response",51,16904550,"0.0-47.0","c7755auwwr",45,NA,"<div style=""width:500px;"">
                            <p style=""font-size:50px; font-weight:bold;""
                            >fearful</p>
                            <div style=""width:240px; margin: auto;"">
                                <img src=""images/map13_gist_earth_scaleRev_orientDef_180.png"" style= ""width:200px""alt=""img"">
                            </div>
                        </div>",0.485,"",0,"",NA,"","images/map13_gist_earth_scaleRev_orientDef_180.png","fearful",1,13,13,"gist","scaleRev","earth","orientDef",NA,NA
"","","","","","html-slider-response",52,16907482,"0.0-48.0","c7755auwwr",45,NA,"<div style=""width:500px;"">
                            <p style=""font-size:50px; font-weight:bold;""
                            >fearful</p>
                            <div style=""width:240px; margin: auto;"">
                                <img src=""images/map15_Greys_scaleDef_orientMir_270.png"" style= ""width:200px""alt=""img"">
                            </div>
                        </div>",0.64,"",0,"",NA,"","images/map15_Greys_scaleDef_orientMir_270.png","fearful",1,15,15,"Greys","orientMir","scaleDef","270",NA,NA
"","","","","","html-slider-response",53,16912451,"0.0-49.0","c7755auwwr",45,NA,"<div style=""width:500px;"">
                            <p style=""font-size:50px; font-weight:bold;""
                            >fearful</p>
                            <div style=""width:240px; margin: auto;"">
                                <img src=""images/map27_PuRd_scaleRev_orientDef_180.png"" style= ""width:200px""alt=""img"">
                            </div>
                        </div>",0.6025,"",0,"",NA,"","images/map27_PuRd_scaleRev_orientDef_180.png","fearful",1,27,27,"PuRd","orientDef","scaleRev","180",NA,NA
"","","","","","html-slider-response",54,16914730,"0.0-50.0","c7755auwwr",45,NA,"<div style=""width:500px;"">
                            <p style=""font-size:50px; font-weight:bold;""
                            >fearful</p>
                            <div style=""width:240px; margin: auto;"">
                                <img src=""images/map27_OrRd_scaleRev_orientDef_000.png"" style= ""width:200px""alt=""img"">
                            </div>
                        </div>",0.7575,"",0,"",NA,"","images/map27_OrRd_scaleRev_orientDef_000.png","fearful",1,27,27,"OrRd","orientDef","scaleRev","000",NA,NA
"","","","","","html-slider-response",55,16916666,"0.0-51.0","c7755auwwr",45,NA,"<div style=""width:500px;"">
                            <p style=""font-size:50px; font-weight:bold;""
                            >fearful</p>
                            <div style=""width:240px; margin: auto;"">
                                <img src=""images/map05_PRGn_scaleRev_orientMir_180.png"" style= ""width:200px""alt=""img"">
                            </div>
                        </div>",0.24,"",0,"",NA,"","images/map05_PRGn_scaleRev_orientMir_180.png","fearful",1,5,5,"PRGn","orientMir","scaleRev","180",NA,NA
"","","","","","html-slider-response",56,16920565,"0.0-52.0","c7755auwwr",45,NA,"<div style=""width:500px;"">
                            <p style=""font-size:50px; font-weight:bold;""
                            >fearful</p>
                            <div style=""width:240px; margin: auto;"">
                                <img src=""images/map15_inferno_scaleRev_orientDef_180.png"" style= ""width:200px""alt=""img"">
                            </div>
                        </div>",0.8925,"",0,"",NA,"","images/map15_inferno_scaleRev_orientDef_180.png","fearful",1,15,15,"inferno","orientDef","scaleRev","180",NA,NA
"","","","","","html-slider-response",57,16922500,"0.0-53.0","c7755auwwr",45,NA,"<div style=""width:500px;"">
                            <p style=""font-size:50px; font-weight:bold;""
                            >fearful</p>
                            <div style=""width:240px; margin: auto;"">
                                <img src=""images/map15_cividis_scaleDef_orientMir_090.png"" style= ""width:200px""alt=""img"">
                            </div>
                        </div>",0.4025,"",0,"",NA,"","images/map15_cividis_scaleDef_orientMir_090.png","fearful",1,15,15,"cividis","orientMir","scaleDef","090",NA,NA
"","","","","","html-button-response",58,16924456,"0.0-54.0","c7755auwwr",45,1454,"<p>You are doing great!<br></br> You are halway done with the current block. When you are ready to continue, click the 'Continue' button.</p>",0.5,"",NA,"",NA,"","","",NA,NA,NA,"","","","",NA,NA
"","","","","","html-slider-response",59,16930332,"0.0-55.0","c7755auwwr",45,NA,"<div style=""width:500px;"">
                            <p style=""font-size:50px; font-weight:bold;""
                            >fearful</p>
                            <div style=""width:240px; margin: auto;"">
                                <img src=""images/map02_BuGn_scaleDef_orientMir_270.png"" style= ""width:200px""alt=""img"">
                            </div>
                        </div>",0,"",0,"",NA,"","images/map02_BuGn_scaleDef_orientMir_270.png","fearful",1,2,2,"BuGn","orientMir","scaleDef","270",NA,NA
"","","","","","html-slider-response",60,16932199,"0.0-56.0","c7755auwwr",45,NA,"<div style=""width:500px;"">
                            <p style=""font-size:50px; font-weight:bold;""
                            >fearful</p>
                            <div style=""width:240px; margin: auto;"">
                                <img src=""images/map27_BuPu_scaleDef_orientMir_090.png"" style= ""width:200px""alt=""img"">
                            </div>
                        </div>",0.72,"",0,"",NA,"","images/map27_BuPu_scaleDef_orientMir_090.png","fearful",1,27,27,"BuPu","orientMir","scaleDef","090",NA,NA
"","","","","","html-slider-response",61,16934499,"0.0-57.0","c7755auwwr",45,NA,"<div style=""width:500px;"">
                            <p style=""font-size:50px; font-weight:bold;""
                            >fearful</p>
                            <div style=""width:240px; margin: auto;"">
                                <img src=""images/map07_PuOr_scaleDef_orientDef_090.png"" style= ""width:200px""alt=""img"">
                            </div>
                        </div>",0.57,"",0,"",NA,"","images/map07_PuOr_scaleDef_orientDef_090.png","fearful",1,7,7,"PuOr","orientDef","scaleDef","090",NA,NA
"","","","","","html-slider-response",62,16940334,"0.0-58.0","c7755auwwr",45,NA,"<div style=""width:500px;"">
                            <p style=""font-size:50px; font-weight:bold;""
                            >fearful</p>
                            <div style=""width:240px; margin: auto;"">
                                <img src=""images/map10_Spectral_scaleDef_orientDef_270.png"" style= ""width:200px""alt=""img"">
                            </div>
                        </div>",0.505,"",0,"",NA,"","images/map10_Spectral_scaleDef_orientDef_270.png","fearful",1,10,10,"Spectral","orientDef","scaleDef","270",NA,NA
"","","","","","html-slider-response",63,16942715,"0.0-59.0","c7755auwwr",45,NA,"<div style=""width:500px;"">
                            <p style=""font-size:50px; font-weight:bold;""
                            >fearful</p>
                            <div style=""width:240px; margin: auto;"">
                                <img src=""images/map23_Purples_scaleRev_orientDef_180.png"" style= ""width:200px""alt=""img"">
                            </div>
                        </div>",0.655,"",0,"",NA,"","images/map23_Purples_scaleRev_orientDef_180.png","fearful",1,23,23,"Purples","orientDef","scaleRev","180",NA,NA
"","","","","","html-slider-response",64,16944649,"0.0-60.0","c7755auwwr",45,NA,"<div style=""width:500px;"">
                            <p style=""font-size:50px; font-weight:bold;""
                            >fearful</p>
                            <div style=""width:240px; margin: auto;"">
                                <img src=""images/map10_Spectral_scaleRev_orientMir_000.png"" style= ""width:200px""alt=""img"">
                            </div>
                        </div>",0.455,"",0,"",NA,"","images/map10_Spectral_scaleRev_orientMir_000.png","fearful",1,10,10,"Spectral","orientMir","scaleRev","000",NA,NA
"","","","","","html-slider-response",65,16950982,"0.0-61.0","c7755auwwr",45,NA,"<div style=""width:500px;"">
                            <p style=""font-size:50px; font-weight:bold;""
                            >fearful</p>
                            <div style=""width:240px; margin: auto;"">
                                <img src=""images/map13_viridis_scaleDef_orientMir_090.png"" style= ""width:200px""alt=""img"">
                            </div>
                        </div>",0.71,"",0,"",NA,"","images/map13_viridis_scaleDef_orientMir_090.png","fearful",1,13,13,"viridis","orientMir","scaleDef","090",NA,NA
"","","","","","html-slider-response",66,16954415,"0.0-62.0","c7755auwwr",45,NA,"<div style=""width:500px;"">
                            <p style=""font-size:50px; font-weight:bold;""
                            >fearful</p>
                            <div style=""width:240px; margin: auto;"">
                                <img src=""images/map07_RdGy_scaleRev_orientMir_000.png"" style= ""width:200px""alt=""img"">
                            </div>
                        </div>",0.3625,"",0,"",NA,"","images/map07_RdGy_scaleRev_orientMir_000.png","fearful",1,7,7,"RdGy","orientMir","scaleRev","000",NA,NA
"","","","","","html-slider-response",67,16962849,"0.0-63.0","c7755auwwr",45,NA,"<div style=""width:500px;"">
                            <p style=""font-size:50px; font-weight:bold;""
                            >fearful</p>
                            <div style=""width:240px; margin: auto;"">
                                <img src=""images/map02_GnBu_scaleRev_orientDef_000.png"" style= ""width:200px""alt=""img"">
                            </div>
                        </div>",0.155,"",0,"",NA,"","images/map02_GnBu_scaleRev_orientDef_000.png","fearful",1,2,2,"GnBu","orientDef","scaleRev","000",NA,NA
"","","","","","html-slider-response",68,16966082,"0.0-64.0","c7755auwwr",45,NA,"<div style=""width:500px;"">
                            <p style=""font-size:50px; font-weight:bold;""
                            >fearful</p>
                            <div style=""width:240px; margin: auto;"">
                                <img src=""images/map13_plasma_scaleDef_orientMir_270.png"" style= ""width:200px""alt=""img"">
                            </div>
                        </div>",0.6425,"",0,"",NA,"","images/map13_plasma_scaleDef_orientMir_270.png","fearful",1,13,13,"plasma","orientMir","scaleDef","270",NA,NA
"","","","","","html-slider-response",69,16983881,"0.0-65.0","c7755auwwr",45,NA,"<div style=""width:500px;"">
                            <p style=""font-size:50px; font-weight:bold;""
                            >fearful</p>
                            <div style=""width:240px; margin: auto;"">
                                <img src=""images/map07_RdBu_scaleDef_orientMir_090.png"" style= ""width:200px""alt=""img"">
                            </div>
                        </div>",0.655,"",0,"",NA,"","images/map07_RdBu_scaleDef_orientMir_090.png","fearful",1,7,7,"RdBu","orientMir","scaleDef","090",NA,NA
"","","","","","html-slider-response",70,16987032,"0.0-66.0","c7755auwwr",45,NA,"<div style=""width:500px;"">
                            <p style=""font-size:50px; font-weight:bold;""
                            >fearful</p>
                            <div style=""width:240px; margin: auto;"">
                                <img src=""images/map10_RdYlGn_scaleDef_orientDef_090.png"" style= ""width:200px""alt=""img"">
                            </div>
                        </div>",0.6525,"",0,"",NA,"","images/map10_RdYlGn_scaleDef_orientDef_090.png","fearful",1,10,10,"RdYlGn","orientDef","scaleDef","090",NA,NA
"","","","","","html-slider-response",71,16999249,"0.0-67.0","c7755auwwr",45,NA,"<div style=""width:500px;"">
                            <p style=""font-size:50px; font-weight:bold;""
                            >fearful</p>
                            <div style=""width:240px; margin: auto;"">
                                <img src=""images/map10_bwr_scaleDef_orientMir_270.png"" style= ""width:200px""alt=""img"">
                            </div>
                        </div>",0.625,"",0,"",NA,"","images/map10_bwr_scaleDef_orientMir_270.png","fearful",1,10,10,"bwr","orientMir","scaleDef","270",NA,NA
"","","","","","html-slider-response",72,17002298,"0.0-68.0","c7755auwwr",45,NA,"<div style=""width:500px;"">
                            <p style=""font-size:50px; font-weight:bold;""
                            >fearful</p>
                            <div style=""width:240px; margin: auto;"">
                                <img src=""images/map23_Purples_scaleDef_orientDef_090.png"" style= ""width:200px""alt=""img"">
                            </div>
                        </div>",0.365,"",0,"",NA,"","images/map23_Purples_scaleDef_orientDef_090.png","fearful",1,23,23,"Purples","orientDef","scaleDef","090",NA,NA
"","","","","","html-slider-response",73,17018115,"0.0-69.0","c7755auwwr",45,NA,"<div style=""width:500px;"">
                            <p style=""font-size:50px; font-weight:bold;""
                            >fearful</p>
                            <div style=""width:240px; margin: auto;"">
                                <img src=""images/map12_bwr_scaleRev_orientDef_000.png"" style= ""width:200px""alt=""img"">
                            </div>
                        </div>",0.7025,"",0,"",NA,"","images/map12_bwr_scaleRev_orientDef_000.png","fearful",1,12,12,"bwr","orientDef","scaleRev","000",NA,NA
"","","","","","html-slider-response",74,17020432,"0.0-70.0","c7755auwwr",45,NA,"<div style=""width:500px;"">
                            <p style=""font-size:50px; font-weight:bold;""
                            >fearful</p>
                            <div style=""width:240px; margin: auto;"">
                                <img src=""images/map05_BuGn_scaleRev_orientDef_000.png"" style= ""width:200px""alt=""img"">
                            </div>
                        </div>",0,"",0,"",NA,"","images/map05_BuGn_scaleRev_orientDef_000.png","fearful",1,5,5,"BuGn","orientDef","scaleRev","000",NA,NA
"","","","","","html-slider-response",75,17031630,"0.0-71.0","c7755auwwr",45,NA,"<div style=""width:500px;"">
                            <p style=""font-size:50px; font-weight:bold;""
                            >fearful</p>
                            <div style=""width:240px; margin: auto;"">
                                <img src=""images/map10_coolwarm_scaleDef_orientMir_090.png"" style= ""width:200px""alt=""img"">
                            </div>
                        </div>",0.1825,"",0,"",NA,"","images/map10_coolwarm_scaleDef_orientMir_090.png","fearful",1,10,10,"coolwarm","orientMir","scaleDef","090",NA,NA
"","","","","","html-slider-response",76,17033650,"0.0-72.0","c7755auwwr",45,NA,"<div style=""width:500px;"">
                            <p style=""font-size:50px; font-weight:bold;""
                            >fearful</p>
                            <div style=""width:240px; margin: auto;"">
                                <img src=""images/map27_PuRd_scaleDef_orientDef_090.png"" style= ""width:200px""alt=""img"">
                            </div>
                        </div>",0.595,"",0,"",NA,"","images/map27_PuRd_scaleDef_orientDef_090.png","fearful",1,27,27,"PuRd","orientDef","scaleDef","090",NA,NA
"","","","","","html-slider-response",77,17036214,"0.0-73.0","c7755auwwr",45,NA,"<div style=""width:500px;"">
                            <p style=""font-size:50px; font-weight:bold;""
                            >fearful</p>
                            <div style=""width:240px; margin: auto;"">
                                <img src=""images/map27_RdPu_scaleDef_orientDef_270.png"" style= ""width:200px""alt=""img"">
                            </div>
                        </div>",0.6425,"",0,"",NA,"","images/map27_RdPu_scaleDef_orientDef_270.png","fearful",1,27,27,"RdPu","orientDef","scaleDef","270",NA,NA
"","","","","","html-slider-response",78,17042081,"0.0-74.0","c7755auwwr",45,NA,"<div style=""width:500px;"">
                            <p style=""font-size:50px; font-weight:bold;""
                            >fearful</p>
                            <div style=""width:240px; margin: auto;"">
                                <img src=""images/map12_berlin_scaleRev_orientMir_000.png"" style= ""width:200px""alt=""img"">
                            </div>
                        </div>",0.3825,"",0,"",NA,"","images/map12_berlin_scaleRev_orientMir_000.png","fearful",1,12,12,"berlin","orientMir","scaleRev","000",NA,NA
"","","","","","html-slider-response",79,17044748,"0.0-75.0","c7755auwwr",45,NA,"<div style=""width:500px;"">
                            <p style=""font-size:50px; font-weight:bold;""
                            >fearful</p>
                            <div style=""width:240px; margin: auto;"">
                                <img src=""images/map26_Reds_scaleRev_orientDef_180.png"" style= ""width:200px""alt=""img"">
                            </div>
                        </div>",0.79,"",0,"",NA,"","images/map26_Reds_scaleRev_orientDef_180.png","fearful",1,26,26,"Reds","orientDef","scaleRev","180",NA,NA
"","","","","","html-slider-response",80,17046598,"0.0-76.0","c7755auwwr",45,NA,"<div style=""width:500px;"">
                            <p style=""font-size:50px; font-weight:bold;""
                            >fearful</p>
                            <div style=""width:240px; margin: auto;"">
                                <img src=""images/map23_Greens_scaleRev_orientMir_180.png"" style= ""width:200px""alt=""img"">
                            </div>
                        </div>",0.0275,"",0,"",NA,"","images/map23_Greens_scaleRev_orientMir_180.png","fearful",1,23,23,"Greens","orientMir","scaleRev","180",NA,NA
"","","","","","html-slider-response",81,17049164,"0.0-77.0","c7755auwwr",45,NA,"<div style=""width:500px;"">
                            <p style=""font-size:50px; font-weight:bold;""
                            >fearful</p>
                            <div style=""width:240px; margin: auto;"">
                                <img src=""images/map26_YlOrRd_scaleDef_orientMir_090.png"" style= ""width:200px""alt=""img"">
                            </div>
                        </div>",0.5025,"",0,"",NA,"","images/map26_YlOrRd_scaleDef_orientMir_090.png","fearful",1,26,26,"YlOrRd","orientMir","scaleDef","090",NA,NA
"","","","","","html-slider-response",82,17051865,"0.0-78.0","c7755auwwr",45,NA,"<div style=""width:500px;"">
                            <p style=""font-size:50px; font-weight:bold;""
                            >fearful</p>
                            <div style=""width:240px; margin: auto;"">
                                <img src=""images/map12_managua_scaleRev_orientMir_180.png"" style= ""width:200px""alt=""img"">
                            </div>
                        </div>",0.4175,"",0,"",NA,"","images/map12_managua_scaleRev_orientMir_180.png","fearful",1,12,12,"managua","orientMir","scaleRev","180",NA,NA
"","","","","","html-slider-response",83,17056731,"0.0-79.0","c7755auwwr",45,NA,"<div style=""width:500px;"">
                            <p style=""font-size:50px; font-weight:bold;""
                            >fearful</p>
                            <div style=""width:240px; margin: auto;"">
                                <img src=""images/map23_Blues_scaleDef_orientDef_270.png"" style= ""width:200px""alt=""img"">
                            </div>
                        </div>",0.055,"",0,"",NA,"","images/map23_Blues_scaleDef_orientDef_270.png","fearful",1,23,23,"Blues","orientDef","scaleDef","270",NA,NA
"","","","","","html-slider-response",84,17060797,"0.0-80.0","c7755auwwr",45,NA,"<div style=""width:500px;"">
                            <p style=""font-size:50px; font-weight:bold;""
                            >fearful</p>
                            <div style=""width:240px; margin: auto;"">
                                <img src=""images/map13_gist_earth_scaleDef_orientDef_090.png"" style= ""width:200px""alt=""img"">
                            </div>
                        </div>",0.575,"",0,"",NA,"","images/map13_gist_earth_scaleDef_orientDef_090.png","fearful",1,13,13,"gist","scaleDef","earth","orientDef",NA,NA
"","","","","","html-slider-response",85,17062863,"0.0-81.0","c7755auwwr",45,NA,"<div style=""width:500px;"">
                            <p style=""font-size:50px; font-weight:bold;""
                            >fearful</p>
                            <div style=""width:240px; margin: auto;"">
                                <img src=""images/map02_PuBu_scaleDef_orientDef_090.png"" style= ""width:200px""alt=""img"">
                            </div>
                        </div>",0.3075,"",0,"",NA,"","images/map02_PuBu_scaleDef_orientDef_090.png","fearful",1,2,2,"PuBu","orientDef","scaleDef","090",NA,NA
"","","","","","html-slider-response",86,17066164,"0.0-82.0","c7755auwwr",45,NA,"<div style=""width:500px;"">
                            <p style=""font-size:50px; font-weight:bold;""
                            >fearful</p>
                            <div style=""width:240px; margin: auto;"">
                                <img src=""images/map13_viridis_scaleRev_orientMir_180.png"" style= ""width:200px""alt=""img"">
                            </div>
                        </div>",0.615,"",0,"",NA,"","images/map13_viridis_scaleRev_orientMir_180.png","fearful",1,13,13,"viridis","orientMir","scaleRev","180",NA,NA
"","","","","","html-slider-response",87,17068831,"0.0-83.0","c7755auwwr",45,NA,"<div style=""width:500px;"">
                            <p style=""font-size:50px; font-weight:bold;""
                            >fearful</p>
                            <div style=""width:240px; margin: auto;"">
                                <img src=""images/map02_YlGnBu_scaleRev_orientMir_000.png"" style= ""width:200px""alt=""img"">
                            </div>
                        </div>",0.555,"",0,"",NA,"","images/map02_YlGnBu_scaleRev_orientMir_000.png","fearful",1,2,2,"YlGnBu","orientMir","scaleRev","000",NA,NA
"","","","","","html-slider-response",88,17070898,"0.0-84.0","c7755auwwr",45,NA,"<div style=""width:500px;"">
                            <p style=""font-size:50px; font-weight:bold;""
                            >fearful</p>
                            <div style=""width:240px; margin: auto;"">
                                <img src=""images/map23_Oranges_scaleDef_orientMir_270.png"" style= ""width:200px""alt=""img"">
                            </div>
                        </div>",0.815,"",0,"",NA,"","images/map23_Oranges_scaleDef_orientMir_270.png","fearful",1,23,23,"Oranges","orientMir","scaleDef","270",NA,NA
"","","","","","html-slider-response",89,17075596,"0.0-85.0","c7755auwwr",45,NA,"<div style=""width:500px;"">
                            <p style=""font-size:50px; font-weight:bold;""
                            >fearful</p>
                            <div style=""width:240px; margin: auto;"">
                                <img src=""images/map13_vanimo_scaleRev_orientDef_000.png"" style= ""width:200px""alt=""img"">
                            </div>
                        </div>",0.455,"",0,"",NA,"","images/map13_vanimo_scaleRev_orientDef_000.png","fearful",1,13,13,"vanimo","orientDef","scaleRev","000",NA,NA
"","","","","","html-slider-response",90,17077833,"0.0-86.0","c7755auwwr",45,NA,"<div style=""width:500px;"">
                            <p style=""font-size:50px; font-weight:bold;""
                            >fearful</p>
                            <div style=""width:240px; margin: auto;"">
                                <img src=""images/map12_managua_scaleDef_orientMir_090.png"" style= ""width:200px""alt=""img"">
                            </div>
                        </div>",0.4525,"",0,"",NA,"","images/map12_managua_scaleDef_orientMir_090.png","fearful",1,12,12,"managua","orientMir","scaleDef","090",NA,NA
"","","","","","html-slider-response",91,17088264,"0.0-87.0","c7755auwwr",45,NA,"<div style=""width:500px;"">
                            <p style=""font-size:50px; font-weight:bold;""
                            >fearful</p>
                            <div style=""width:240px; margin: auto;"">
                                <img src=""images/map15_magma_scaleRev_orientMir_000.png"" style= ""width:200px""alt=""img"">
                            </div>
                        </div>",0.405,"",0,"",NA,"","images/map15_magma_scaleRev_orientMir_000.png","fearful",1,15,15,"magma","orientMir","scaleRev","000",NA,NA
"","","","","","html-slider-response",92,17093165,"0.0-88.0","c7755auwwr",45,NA,"<div style=""width:500px;"">
                            <p style=""font-size:50px; font-weight:bold;""
                            >fearful</p>
                            <div style=""width:240px; margin: auto;"">
                                <img src=""images/map26_YlOrBr_scaleRev_orientMir_000.png"" style= ""width:200px""alt=""img"">
                            </div>
                        </div>",0.905,"",0,"",NA,"","images/map26_YlOrBr_scaleRev_orientMir_000.png","fearful",1,26,26,"YlOrBr","orientMir","scaleRev","000",NA,NA
"","","","","","html-slider-response",93,17105113,"0.0-89.0","c7755auwwr",45,NA,"<div style=""width:500px;"">
                            <p style=""font-size:50px; font-weight:bold;""
                            >fearful</p>
                            <div style=""width:240px; margin: auto;"">
                                <img src=""images/map05_PRGn_scaleDef_orientMir_090.png"" style= ""width:200px""alt=""img"">
                            </div>
                        </div>",0.285,"",0,"",NA,"","images/map05_PRGn_scaleDef_orientMir_090.png","fearful",1,5,5,"PRGn","orientMir","scaleDef","090",NA,NA
"","","","","","html-slider-response",94,17114829,"0.0-90.0","c7755auwwr",45,NA,"<div style=""width:500px;"">
                            <p style=""font-size:50px; font-weight:bold;""
                            >fearful</p>
                            <div style=""width:240px; margin: auto;"">
                                <img src=""images/map15_inferno_scaleDef_orientDef_090.png"" style= ""width:200px""alt=""img"">
                            </div>
                        </div>",0.54,"",0,"",NA,"","images/map15_inferno_scaleDef_orientDef_090.png","fearful",1,15,15,"inferno","orientDef","scaleDef","090",NA,NA
"","","","","","html-slider-response",95,17120466,"0.0-91.0","c7755auwwr",45,NA,"<div style=""width:500px;"">
                            <p style=""font-size:50px; font-weight:bold;""
                            >fearful</p>
                            <div style=""width:240px; margin: auto;"">
                                <img src=""images/map05_BrBG_scaleDef_orientMir_270.png"" style= ""width:200px""alt=""img"">
                            </div>
                        </div>",0.085,"",0,"",NA,"","images/map05_BrBG_scaleDef_orientMir_270.png","fearful",1,5,5,"BrBG","orientMir","scaleDef","270",NA,NA
"","","","","","html-slider-response",96,17124713,"0.0-92.0","c7755auwwr",45,NA,"<div style=""width:500px;"">
                            <p style=""font-size:50px; font-weight:bold;""
                            >fearful</p>
                            <div style=""width:240px; margin: auto;"">
                                <img src=""images/map07_BrBG_scaleRev_orientDef_000.png"" style= ""width:200px""alt=""img"">
                            </div>
                        </div>",0.16,"",0,"",NA,"","images/map07_BrBG_scaleRev_orientDef_000.png","fearful",1,7,7,"BrBG","orientDef","scaleRev","000",NA,NA
"","","","","","html-slider-response",97,17127548,"0.0-93.0","c7755auwwr",45,NA,"<div style=""width:500px;"">
                            <p style=""font-size:50px; font-weight:bold;""
                            >fearful</p>
                            <div style=""width:240px; margin: auto;"">
                                <img src=""images/map10_coolwarm_scaleRev_orientMir_180.png"" style= ""width:200px""alt=""img"">
                            </div>
                        </div>",0.39,"",0,"",NA,"","images/map10_coolwarm_scaleRev_orientMir_180.png","fearful",1,10,10,"coolwarm","orientMir","scaleRev","180",NA,NA
"","","","","","html-slider-response",98,17130714,"0.0-94.0","c7755auwwr",45,NA,"<div style=""width:500px;"">
                            <p style=""font-size:50px; font-weight:bold;""
                            >fearful</p>
                            <div style=""width:240px; margin: auto;"">
                                <img src=""images/map13_turbo_scaleRev_orientMir_000.png"" style= ""width:200px""alt=""img"">
                            </div>
                        </div>",0.5325,"",0,"",NA,"","images/map13_turbo_scaleRev_orientMir_000.png","fearful",1,13,13,"turbo","orientMir","scaleRev","000",NA,NA
"","","","","","html-button-response",99,17134420,"0.0-95.0","c7755auwwr",45,3204,"<p>Great Job! You've finished block 1.<br></br> You have 4 block(s) left to go.<br></br></p>",0.5,"",NA,"",NA,"","","",NA,NA,NA,"","","","",NA,NA
"","","","","","html-button-response",100,17135621,"0.0-96.0","c7755auwwr",45,1201,"<p>In this block of trials, you will be asked to rate how much you associate each map with:</p > <p style = 'font-size:150%; font-weight: bold'>disgust</p><br></br>",0.5,"",NA,"",NA,"","","",NA,NA,NA,"","","","",NA,NA
"","","","","","html-slider-response",101,17139064,"0.0-97.0","c7755auwwr",45,NA,"<div style=""width:500px;"">
                            <p style=""font-size:50px; font-weight:bold;""
                            >disgust</p>
                            <div style=""width:240px; margin: auto;"">
                                <img src=""images/map07_RdBu_scaleRev_orientMir_180.png"" style= ""width:200px""alt=""img"">
                            </div>
                        </div>",0,"",0,"",NA,"","images/map07_RdBu_scaleRev_orientMir_180.png","disgust",1,7,7,"RdBu","orientMir","scaleRev","180",NA,NA
"","","","","","html-slider-response",102,17142467,"0.0-98.0","c7755auwwr",45,NA,"<div style=""width:500px;"">
                            <p style=""font-size:50px; font-weight:bold;""
                            >disgust</p>
                            <div style=""width:240px; margin: auto;"">
                                <img src=""images/map10_Spectral_scaleRev_orientMir_000.png"" style= ""width:200px""alt=""img"">
                            </div>
                        </div>",0.35,"",0,"",NA,"","images/map10_Spectral_scaleRev_orientMir_000.png","disgust",1,10,10,"Spectral","orientMir","scaleRev","000",NA,NA
"","","","","","html-slider-response",103,17145098,"0.0-99.0","c7755auwwr",45,NA,"<div style=""width:500px;"">
                            <p style=""font-size:50px; font-weight:bold;""
                            >disgust</p>
                            <div style=""width:240px; margin: auto;"">
                                <img src=""images/map02_PuBu_scaleRev_orientDef_180.png"" style= ""width:200px""alt=""img"">
                            </div>
                        </div>",0.58,"",0,"",NA,"","images/map02_PuBu_scaleRev_orientDef_180.png","disgust",1,2,2,"PuBu","orientDef","scaleRev","180",NA,NA
"","","","","","html-slider-response",104,17147564,"0.0-100.0","c7755auwwr",45,NA,"<div style=""width:500px;"">
                            <p style=""font-size:50px; font-weight:bold;""
                            >disgust</p>
                            <div style=""width:240px; margin: auto;"">
                                <img src=""images/map10_RdYlBu_scaleRev_orientDef_000.png"" style= ""width:200px""alt=""img"">
                            </div>
                        </div>",0.555,"",0,"",NA,"","images/map10_RdYlBu_scaleRev_orientDef_000.png","disgust",1,10,10,"RdYlBu","orientDef","scaleRev","000",NA,NA
"","","","","","html-slider-response",105,17151396,"0.0-101.0","c7755auwwr",45,NA,"<div style=""width:500px;"">
                            <p style=""font-size:50px; font-weight:bold;""
                            >disgust</p>
                            <div style=""width:240px; margin: auto;"">
                                <img src=""images/map26_YlOrBr_scaleDef_orientDef_270.png"" style= ""width:200px""alt=""img"">
                            </div>
                        </div>",0.105,"",0,"",NA,"","images/map26_YlOrBr_scaleDef_orientDef_270.png","disgust",1,26,26,"YlOrBr","orientDef","scaleDef","270",NA,NA
"","","","","","html-slider-response",106,17153415,"0.0-102.0","c7755auwwr",45,NA,"<div style=""width:500px;"">
                            <p style=""font-size:50px; font-weight:bold;""
                            >disgust</p>
                            <div style=""width:240px; margin: auto;"">
                                <img src=""images/map26_Oranges_scaleRev_orientDef_000.png"" style= ""width:200px""alt=""img"">
                            </div>
                        </div>",0,"",0,"",NA,"","images/map26_Oranges_scaleRev_orientDef_000.png","disgust",1,26,26,"Oranges","orientDef","scaleRev","000",NA,NA
"","","","","","html-slider-response",107,17155715,"0.0-103.0","c7755auwwr",45,NA,"<div style=""width:500px;"">
                            <p style=""font-size:50px; font-weight:bold;""
                            >disgust</p>
                            <div style=""width:240px; margin: auto;"">
                                <img src=""images/map23_Oranges_scaleDef_orientMir_270.png"" style= ""width:200px""alt=""img"">
                            </div>
                        </div>",0,"",0,"",NA,"","images/map23_Oranges_scaleDef_orientMir_270.png","disgust",1,23,23,"Oranges","orientMir","scaleDef","270",NA,NA
"","","","","","html-slider-response",108,17161081,"0.0-104.0","c7755auwwr",45,NA,"<div style=""width:500px;"">
                            <p style=""font-size:50px; font-weight:bold;""
                            >disgust</p>
                            <div style=""width:240px; margin: auto;"">
                                <img src=""images/map23_Greys_scaleRev_orientDef_000.png"" style= ""width:200px""alt=""img"">
                            </div>
                        </div>",0.6025,"",0,"",NA,"","images/map23_Greys_scaleRev_orientDef_000.png","disgust",1,23,23,"Greys","orientDef","scaleRev","000",NA,NA
"","","","","","html-slider-response",109,17165848,"0.0-105.0","c7755auwwr",45,NA,"<div style=""width:500px;"">
                            <p style=""font-size:50px; font-weight:bold;""
                            >disgust</p>
                            <div style=""width:240px; margin: auto;"">
                                <img src=""images/map15_Greys_scaleDef_orientMir_270.png"" style= ""width:200px""alt=""img"">
                            </div>
                        </div>",0.7325,"",0,"",NA,"","images/map15_Greys_scaleDef_orientMir_270.png","disgust",1,15,15,"Greys","orientMir","scaleDef","270",NA,NA
"","","","","","html-slider-response",110,17170865,"0.0-106.0","c7755auwwr",45,NA,"<div style=""width:500px;"">
                            <p style=""font-size:50px; font-weight:bold;""
                            >disgust</p>
                            <div style=""width:240px; margin: auto;"">
                                <img src=""images/map13_vanimo_scaleRev_orientDef_000.png"" style= ""width:200px""alt=""img"">
                            </div>
                        </div>",0.575,"",0,"",NA,"","images/map13_vanimo_scaleRev_orientDef_000.png","disgust",1,13,13,"vanimo","orientDef","scaleRev","000",NA,NA
"","","","","","html-slider-response",111,17173981,"0.0-107.0","c7755auwwr",45,NA,"<div style=""width:500px;"">
                            <p style=""font-size:50px; font-weight:bold;""
                            >disgust</p>
                            <div style=""width:240px; margin: auto;"">
                                <img src=""images/map12_vanimo_scaleDef_orientMir_270.png"" style= ""width:200px""alt=""img"">
                            </div>
                        </div>",0.535,"",0,"",NA,"","images/map12_vanimo_scaleDef_orientMir_270.png","disgust",1,12,12,"vanimo","orientMir","scaleDef","270",NA,NA
"","","","","","html-slider-response",112,17175865,"0.0-108.0","c7755auwwr",45,NA,"<div style=""width:500px;"">
                            <p style=""font-size:50px; font-weight:bold;""
                            >disgust</p>
                            <div style=""width:240px; margin: auto;"">
                                <img src=""images/map02_YlGnBu_scaleDef_orientDef_270.png"" style= ""width:200px""alt=""img"">
                            </div>
                        </div>",0,"",0,"",NA,"","images/map02_YlGnBu_scaleDef_orientDef_270.png","disgust",1,2,2,"YlGnBu","orientDef","scaleDef","270",NA,NA
"","","","","","html-slider-response",113,17177931,"0.0-109.0","c7755auwwr",45,NA,"<div style=""width:500px;"">
                            <p style=""font-size:50px; font-weight:bold;""
                            >disgust</p>
                            <div style=""width:240px; margin: auto;"">
                                <img src=""images/map27_OrRd_scaleRev_orientDef_000.png"" style= ""width:200px""alt=""img"">
                            </div>
                        </div>",0,"",0,"",NA,"","images/map27_OrRd_scaleRev_orientDef_000.png","disgust",1,27,27,"OrRd","orientDef","scaleRev","000",NA,NA
"","","","","","html-slider-response",114,17180747,"0.0-110.0","c7755auwwr",45,NA,"<div style=""width:500px;"">
                            <p style=""font-size:50px; font-weight:bold;""
                            >disgust</p>
                            <div style=""width:240px; margin: auto;"">
                                <img src=""images/map26_Reds_scaleDef_orientDef_090.png"" style= ""width:200px""alt=""img"">
                            </div>
                        </div>",0.5825,"",0,"",NA,"","images/map26_Reds_scaleDef_orientDef_090.png","disgust",1,26,26,"Reds","orientDef","scaleDef","090",NA,NA
"","","","","","html-slider-response",115,17183162,"0.0-111.0","c7755auwwr",45,NA,"<div style=""width:500px;"">
                            <p style=""font-size:50px; font-weight:bold;""
                            >disgust</p>
                            <div style=""width:240px; margin: auto;"">
                                <img src=""images/map05_PRGn_scaleDef_orientMir_090.png"" style= ""width:200px""alt=""img"">
                            </div>
                        </div>",0.555,"",0,"",NA,"","images/map05_PRGn_scaleDef_orientMir_090.png","disgust",1,5,5,"PRGn","orientMir","scaleDef","090",NA,NA
"","","","","","html-slider-response",116,17185598,"0.0-112.0","c7755auwwr",45,NA,"<div style=""width:500px;"">
                            <p style=""font-size:50px; font-weight:bold;""
                            >disgust</p>
                            <div style=""width:240px; margin: auto;"">
                                <img src=""images/map27_RdPu_scaleDef_orientDef_270.png"" style= ""width:200px""alt=""img"">
                            </div>
                        </div>",0,"",0,"",NA,"","images/map27_RdPu_scaleDef_orientDef_270.png","disgust",1,27,27,"RdPu","orientDef","scaleDef","270",NA,NA
"","","","","","html-slider-response",117,17188096,"0.0-113.0","c7755auwwr",45,NA,"<div style=""width:500px;"">
                            <p style=""font-size:50px; font-weight:bold;""
                            >disgust</p>
                            <div style=""width:240px; margin: auto;"">
                                <img src=""images/map26_YlOrRd_scaleRev_orientMir_180.png"" style= ""width:200px""alt=""img"">
                            </div>
                        </div>",0.225,"",0,"",NA,"","images/map26_YlOrRd_scaleRev_orientMir_180.png","disgust",1,26,26,"YlOrRd","orientMir","scaleRev","180",NA,NA
"","","","","","html-slider-response",118,17193796,"0.0-114.0","c7755auwwr",45,NA,"<div style=""width:500px;"">
                            <p style=""font-size:50px; font-weight:bold;""
                            >disgust</p>
                            <div style=""width:240px; margin: auto;"">
                                <img src=""images/map26_YlOrRd_scaleDef_orientMir_090.png"" style= ""width:200px""alt=""img"">
                            </div>
                        </div>",0.335,"",0,"",NA,"","images/map26_YlOrRd_scaleDef_orientMir_090.png","disgust",1,26,26,"YlOrRd","orientMir","scaleDef","090",NA,NA
"","","","","","html-slider-response",119,17197547,"0.0-115.0","c7755auwwr",45,NA,"<div style=""width:500px;"">
                            <p style=""font-size:50px; font-weight:bold;""
                            >disgust</p>
                            <div style=""width:240px; margin: auto;"">
                                <img src=""images/map12_seismic_scaleRev_orientDef_180.png"" style= ""width:200px""alt=""img"">
                            </div>
                        </div>",0.7875,"",0,"",NA,"","images/map12_seismic_scaleRev_orientDef_180.png","disgust",1,12,12,"seismic","orientDef","scaleRev","180",NA,NA
"","","","","","html-slider-response",120,17199797,"0.0-116.0","c7755auwwr",45,NA,"<div style=""width:500px;"">
                            <p style=""font-size:50px; font-weight:bold;""
                            >disgust</p>
                            <div style=""width:240px; margin: auto;"">
                                <img src=""images/map13_gist_earth_scaleDef_orientDef_090.png"" style= ""width:200px""alt=""img"">
                            </div>
                        </div>",0.805,"",0,"",NA,"","images/map13_gist_earth_scaleDef_orientDef_090.png","disgust",1,13,13,"gist","scaleDef","earth","orientDef",NA,NA
"","","","","","html-slider-response",121,17205247,"0.0-117.0","c7755auwwr",45,NA,"<div style=""width:500px;"">
                            <p style=""font-size:50px; font-weight:bold;""
                            >disgust</p>
                            <div style=""width:240px; margin: auto;"">
                                <img src=""images/map07_RdBu_scaleDef_orientMir_090.png"" style= ""width:200px""alt=""img"">
                            </div>
                        </div>",0.6225,"",0,"",NA,"","images/map07_RdBu_scaleDef_orientMir_090.png","disgust",1,7,7,"RdBu","orientMir","scaleDef","090",NA,NA
"","","","","","html-slider-response",122,17214297,"0.0-118.0","c7755auwwr",45,NA,"<div style=""width:500px;"">
                            <p style=""font-size:50px; font-weight:bold;""
                            >disgust</p>
                            <div style=""width:240px; margin: auto;"">
                                <img src=""images/map02_PuBuGn_scaleRev_orientMir_180.png"" style= ""width:200px""alt=""img"">
                            </div>
                        </div>",0.275,"",0,"",NA,"","images/map02_PuBuGn_scaleRev_orientMir_180.png","disgust",1,2,2,"PuBuGn","orientMir","scaleRev","180",NA,NA
"","","","","","html-slider-response",123,17216931,"0.0-119.0","c7755auwwr",45,NA,"<div style=""width:500px;"">
                            <p style=""font-size:50px; font-weight:bold;""
                            >disgust</p>
                            <div style=""width:240px; margin: auto;"">
                                <img src=""images/map02_PuBuGn_scaleDef_orientMir_090.png"" style= ""width:200px""alt=""img"">
                            </div>
                        </div>",0.2075,"",0,"",NA,"","images/map02_PuBuGn_scaleDef_orientMir_090.png","disgust",1,2,2,"PuBuGn","orientMir","scaleDef","090",NA,NA
"","","","","","html-slider-response",124,17220214,"0.0-120.0","c7755auwwr",45,NA,"<div style=""width:500px;"">
                            <p style=""font-size:50px; font-weight:bold;""
                            >disgust</p>
                            <div style=""width:240px; margin: auto;"">
                                <img src=""images/map26_Reds_scaleRev_orientDef_180.png"" style= ""width:200px""alt=""img"">
                            </div>
                        </div>",0.905,"",0,"",NA,"","images/map26_Reds_scaleRev_orientDef_180.png","disgust",1,26,26,"Reds","orientDef","scaleRev","180",NA,NA
"","","","","","html-slider-response",125,17223164,"0.0-121.0","c7755auwwr",45,NA,"<div style=""width:500px;"">
                            <p style=""font-size:50px; font-weight:bold;""
                            >disgust</p>
                            <div style=""width:240px; margin: auto;"">
                                <img src=""images/map07_PuOr_scaleDef_orientDef_090.png"" style= ""width:200px""alt=""img"">
                            </div>
                        </div>",0.905,"",0,"",NA,"","images/map07_PuOr_scaleDef_orientDef_090.png","disgust",1,7,7,"PuOr","orientDef","scaleDef","090",NA,NA
"","","","","","html-slider-response",126,17225347,"0.0-122.0","c7755auwwr",45,NA,"<div style=""width:500px;"">
                            <p style=""font-size:50px; font-weight:bold;""
                            >disgust</p>
                            <div style=""width:240px; margin: auto;"">
                                <img src=""images/map07_BrBG_scaleRev_orientDef_000.png"" style= ""width:200px""alt=""img"">
                            </div>
                        </div>",0.6,"",0,"",NA,"","images/map07_BrBG_scaleRev_orientDef_000.png","disgust",1,7,7,"BrBG","orientDef","scaleRev","000",NA,NA
"","","","","","html-slider-response",127,17227563,"0.0-123.0","c7755auwwr",45,NA,"<div style=""width:500px;"">
                            <p style=""font-size:50px; font-weight:bold;""
                            >disgust</p>
                            <div style=""width:240px; margin: auto;"">
                                <img src=""images/map12_seismic_scaleDef_orientDef_090.png"" style= ""width:200px""alt=""img"">
                            </div>
                        </div>",0.69,"",0,"",NA,"","images/map12_seismic_scaleDef_orientDef_090.png","disgust",1,12,12,"seismic","orientDef","scaleDef","090",NA,NA
"","","","","","html-slider-response",128,17230598,"0.0-124.0","c7755auwwr",45,NA,"<div style=""width:500px;"">
                            <p style=""font-size:50px; font-weight:bold;""
                            >disgust</p>
                            <div style=""width:240px; margin: auto;"">
                                <img src=""images/map23_Greens_scaleRev_orientMir_180.png"" style= ""width:200px""alt=""img"">
                            </div>
                        </div>",0,"",0,"",NA,"","images/map23_Greens_scaleRev_orientMir_180.png","disgust",1,23,23,"Greens","orientMir","scaleRev","180",NA,NA
"","","","","","html-slider-response",129,17232614,"0.0-125.0","c7755auwwr",45,NA,"<div style=""width:500px;"">
                            <p style=""font-size:50px; font-weight:bold;""
                            >disgust</p>
                            <div style=""width:240px; margin: auto;"">
                                <img src=""images/map02_GnBu_scaleRev_orientDef_000.png"" style= ""width:200px""alt=""img"">
                            </div>
                        </div>",0,"",0,"",NA,"","images/map02_GnBu_scaleRev_orientDef_000.png","disgust",1,2,2,"GnBu","orientDef","scaleRev","000",NA,NA
"","","","","","html-slider-response",130,17234749,"0.0-126.0","c7755auwwr",45,NA,"<div style=""width:500px;"">
                            <p style=""font-size:50px; font-weight:bold;""
                            >disgust</p>
                            <div style=""width:240px; margin: auto;"">
                                <img src=""images/map23_Blues_scaleRev_orientMir_000.png"" style= ""width:200px""alt=""img"">
                            </div>
                        </div>",0.1125,"",0,"",NA,"","images/map23_Blues_scaleRev_orientMir_000.png","disgust",1,23,23,"Blues","orientMir","scaleRev","000",NA,NA
"","","","","","html-slider-response",131,17237096,"0.0-127.0","c7755auwwr",45,NA,"<div style=""width:500px;"">
                            <p style=""font-size:50px; font-weight:bold;""
                            >disgust</p>
                            <div style=""width:240px; margin: auto;"">
                                <img src=""images/map10_RdYlGn_scaleRev_orientDef_180.png"" style= ""width:200px""alt=""img"">
                            </div>
                        </div>",0.8375,"",0,"",NA,"","images/map10_RdYlGn_scaleRev_orientDef_180.png","disgust",1,10,10,"RdYlGn","orientDef","scaleRev","180",NA,NA
"","","","","","html-slider-response",132,17241998,"0.0-128.0","c7755auwwr",45,NA,"<div style=""width:500px;"">
                            <p style=""font-size:50px; font-weight:bold;""
                            >disgust</p>
                            <div style=""width:240px; margin: auto;"">
                                <img src=""images/map23_Purples_scaleDef_orientDef_090.png"" style= ""width:200px""alt=""img"">
                            </div>
                        </div>",0.0175,"",0,"",NA,"","images/map23_Purples_scaleDef_orientDef_090.png","disgust",1,23,23,"Purples","orientDef","scaleDef","090",NA,NA
"","","","","","html-slider-response",133,17246363,"0.0-129.0","c7755auwwr",45,NA,"<div style=""width:500px;"">
                            <p style=""font-size:50px; font-weight:bold;""
                            >disgust</p>
                            <div style=""width:240px; margin: auto;"">
                                <img src=""images/map13_turbo_scaleRev_orientMir_000.png"" style= ""width:200px""alt=""img"">
                            </div>
                        </div>",0.835,"",0,"",NA,"","images/map13_turbo_scaleRev_orientMir_000.png","disgust",1,13,13,"turbo","orientMir","scaleRev","000",NA,NA
"","","","","","html-slider-response",134,17250447,"0.0-130.0","c7755auwwr",45,NA,"<div style=""width:500px;"">
                            <p style=""font-size:50px; font-weight:bold;""
                            >disgust</p>
                            <div style=""width:240px; margin: auto;"">
                                <img src=""images/map12_managua_scaleRev_orientMir_180.png"" style= ""width:200px""alt=""img"">
                            </div>
                        </div>",0,"",0,"",NA,"","images/map12_managua_scaleRev_orientMir_180.png","disgust",1,12,12,"managua","orientMir","scaleRev","180",NA,NA
"","","","","","html-slider-response",135,17257762,"0.0-131.0","c7755auwwr",45,NA,"<div style=""width:500px;"">
                            <p style=""font-size:50px; font-weight:bold;""
                            >disgust</p>
                            <div style=""width:240px; margin: auto;"">
                                <img src=""images/map07_RdGy_scaleDef_orientDef_270.png"" style= ""width:200px""alt=""img"">
                            </div>
                        </div>",0.8825,"",0,"",NA,"","images/map07_RdGy_scaleDef_orientDef_270.png","disgust",1,7,7,"RdGy","orientDef","scaleDef","270",NA,NA
"","","","","","html-slider-response",136,17262913,"0.0-132.0","c7755auwwr",45,NA,"<div style=""width:500px;"">
                            <p style=""font-size:50px; font-weight:bold;""
                            >disgust</p>
                            <div style=""width:240px; margin: auto;"">
                                <img src=""images/map05_YlGn_scaleDef_orientDef_090.png"" style= ""width:200px""alt=""img"">
                            </div>
                        </div>",0.0175,"",0,"",NA,"","images/map05_YlGn_scaleDef_orientDef_090.png","disgust",1,5,5,"YlGn","orientDef","scaleDef","090",NA,NA
"","","","","","html-slider-response",137,17316380,"0.0-133.0","c7755auwwr",45,NA,"<div style=""width:500px;"">
                            <p style=""font-size:50px; font-weight:bold;""
                            >disgust</p>
                            <div style=""width:240px; margin: auto;"">
                                <img src=""images/map05_PRGn_scaleRev_orientMir_180.png"" style= ""width:200px""alt=""img"">
                            </div>
                        </div>",0.8675,"",0,"",NA,"","images/map05_PRGn_scaleRev_orientMir_180.png","disgust",1,5,5,"PRGn","orientMir","scaleRev","180",NA,NA
"","","","","","html-slider-response",138,17321246,"0.0-134.0","c7755auwwr",45,NA,"<div style=""width:500px;"">
                            <p style=""font-size:50px; font-weight:bold;""
                            >disgust</p>
                            <div style=""width:240px; margin: auto;"">
                                <img src=""images/map13_viridis_scaleDef_orientMir_090.png"" style= ""width:200px""alt=""img"">
                            </div>
                        </div>",0.765,"",0,"",NA,"","images/map13_viridis_scaleDef_orientMir_090.png","disgust",1,13,13,"viridis","orientMir","scaleDef","090",NA,NA
"","","","","","html-slider-response",139,17323145,"0.0-135.0","c7755auwwr",45,NA,"<div style=""width:500px;"">
                            <p style=""font-size:50px; font-weight:bold;""
                            >disgust</p>
                            <div style=""width:240px; margin: auto;"">
                                <img src=""images/map23_Greens_scaleDef_orientMir_090.png"" style= ""width:200px""alt=""img"">
                            </div>
                        </div>",0.105,"",0,"",NA,"","images/map23_Greens_scaleDef_orientMir_090.png","disgust",1,23,23,"Greens","orientMir","scaleDef","090",NA,NA
"","","","","","html-slider-response",140,17324896,"0.0-136.0","c7755auwwr",45,NA,"<div style=""width:500px;"">
                            <p style=""font-size:50px; font-weight:bold;""
                            >disgust</p>
                            <div style=""width:240px; margin: auto;"">
                                <img src=""images/map15_magma_scaleRev_orientMir_000.png"" style= ""width:200px""alt=""img"">
                            </div>
                        </div>",0.115,"",0,"",NA,"","images/map15_magma_scaleRev_orientMir_000.png","disgust",1,15,15,"magma","orientMir","scaleRev","000",NA,NA
"","","","","","html-button-response",141,17330937,"0.0-137.0","c7755auwwr",45,5538,"<p>You are doing great!<br></br> You are halway done with the current block. When you are ready to continue, click the 'Continue' button.</p>",0.5,"",NA,"",NA,"","","",NA,NA,NA,"","","","",NA,NA
"","","","","","html-slider-response",142,17332195,"0.0-138.0","c7755auwwr",45,NA,"<div style=""width:500px;"">
                            <p style=""font-size:50px; font-weight:bold;""
                            >disgust</p>
                            <div style=""width:240px; margin: auto;"">
                                <img src=""images/map26_YlOrBr_scaleRev_orientMir_000.png"" style= ""width:200px""alt=""img"">
                            </div>
                        </div>",0.0925,"",0,"",NA,"","images/map26_YlOrBr_scaleRev_orientMir_000.png","disgust",1,26,26,"YlOrBr","orientMir","scaleRev","000",NA,NA
"","","","","","html-slider-response",143,17333864,"0.0-139.0","c7755auwwr",45,NA,"<div style=""width:500px;"">
                            <p style=""font-size:50px; font-weight:bold;""
                            >disgust</p>
                            <div style=""width:240px; margin: auto;"">
                                <img src=""images/map27_BuPu_scaleRev_orientMir_180.png"" style= ""width:200px""alt=""img"">
                            </div>
                        </div>",0,"",0,"",NA,"","images/map27_BuPu_scaleRev_orientMir_180.png","disgust",1,27,27,"BuPu","orientMir","scaleRev","180",NA,NA
"","","","","","html-slider-response",144,17335679,"0.0-140.0","c7755auwwr",45,NA,"<div style=""width:500px;"">
                            <p style=""font-size:50px; font-weight:bold;""
                            >disgust</p>
                            <div style=""width:240px; margin: auto;"">
                                <img src=""images/map05_PiYG_scaleDef_orientDef_270.png"" style= ""width:200px""alt=""img"">
                            </div>
                        </div>",0.3925,"",0,"",NA,"","images/map05_PiYG_scaleDef_orientDef_270.png","disgust",1,5,5,"PiYG","orientDef","scaleDef","270",NA,NA
"","","","","","html-slider-response",145,17337229,"0.0-141.0","c7755auwwr",45,NA,"<div style=""width:500px;"">
                            <p style=""font-size:50px; font-weight:bold;""
                            >disgust</p>
                            <div style=""width:240px; margin: auto;"">
                                <img src=""images/map15_magma_scaleDef_orientDef_270.png"" style= ""width:200px""alt=""img"">
                            </div>
                        </div>",0.3425,"",0,"",NA,"","images/map15_magma_scaleDef_orientDef_270.png","disgust",1,15,15,"magma","orientDef","scaleDef","270",NA,NA
"","","","","","html-slider-response",146,17339080,"0.0-142.0","c7755auwwr",45,NA,"<div style=""width:500px;"">
                            <p style=""font-size:50px; font-weight:bold;""
                            >disgust</p>
                            <div style=""width:240px; margin: auto;"">
                                <img src=""images/map13_gist_earth_scaleRev_orientDef_180.png"" style= ""width:200px""alt=""img"">
                            </div>
                        </div>",0.65,"",0,"",NA,"","images/map13_gist_earth_scaleRev_orientDef_180.png","disgust",1,13,13,"gist","scaleRev","earth","orientDef",NA,NA
"","","","","","html-slider-response",147,17340778,"0.0-143.0","c7755auwwr",45,NA,"<div style=""width:500px;"">
                            <p style=""font-size:50px; font-weight:bold;""
                            >disgust</p>
                            <div style=""width:240px; margin: auto;"">
                                <img src=""images/map15_cividis_scaleDef_orientMir_090.png"" style= ""width:200px""alt=""img"">
                            </div>
                        </div>",0.835,"",0,"",NA,"","images/map15_cividis_scaleDef_orientMir_090.png","disgust",1,15,15,"cividis","orientMir","scaleDef","090",NA,NA
"","","","","","html-slider-response",148,17343114,"0.0-144.0","c7755auwwr",45,NA,"<div style=""width:500px;"">
                            <p style=""font-size:50px; font-weight:bold;""
                            >disgust</p>
                            <div style=""width:240px; margin: auto;"">
                                <img src=""images/map02_PuBu_scaleDef_orientDef_090.png"" style= ""width:200px""alt=""img"">
                            </div>
                        </div>",0.18,"",0,"",NA,"","images/map02_PuBu_scaleDef_orientDef_090.png","disgust",1,2,2,"PuBu","orientDef","scaleDef","090",NA,NA
"","","","","","html-slider-response",149,17347264,"0.0-145.0","c7755auwwr",45,NA,"<div style=""width:500px;"">
                            <p style=""font-size:50px; font-weight:bold;""
                            >disgust</p>
                            <div style=""width:240px; margin: auto;"">
                                <img src=""images/map10_coolwarm_scaleRev_orientMir_180.png"" style= ""width:200px""alt=""img"">
                            </div>
                        </div>",0.37,"",0,"",NA,"","images/map10_coolwarm_scaleRev_orientMir_180.png","disgust",1,10,10,"coolwarm","orientMir","scaleRev","180",NA,NA
"","","","","","html-slider-response",150,17349563,"0.0-146.0","c7755auwwr",45,NA,"<div style=""width:500px;"">
                            <p style=""font-size:50px; font-weight:bold;""
                            >disgust</p>
                            <div style=""width:240px; margin: auto;"">
                                <img src=""images/map13_turbo_scaleDef_orientDef_270.png"" style= ""width:200px""alt=""img"">
                            </div>
                        </div>",0.955,"",0,"",NA,"","images/map13_turbo_scaleDef_orientDef_270.png","disgust",1,13,13,"turbo","orientDef","scaleDef","270",NA,NA
"","","","","","html-slider-response",151,17352663,"0.0-147.0","c7755auwwr",45,NA,"<div style=""width:500px;"">
                            <p style=""font-size:50px; font-weight:bold;""
                            >disgust</p>
                            <div style=""width:240px; margin: auto;"">
                                <img src=""images/map15_plasma_scaleRev_orientDef_000.png"" style= ""width:200px""alt=""img"">
                            </div>
                        </div>",0.0875,"",0,"",NA,"","images/map15_plasma_scaleRev_orientDef_000.png","disgust",1,15,15,"plasma","orientDef","scaleRev","000",NA,NA
"","","","","","html-slider-response",152,17354482,"0.0-148.0","c7755auwwr",45,NA,"<div style=""width:500px;"">
                            <p style=""font-size:50px; font-weight:bold;""
                            >disgust</p>
                            <div style=""width:240px; margin: auto;"">
                                <img src=""images/map23_Blues_scaleDef_orientDef_270.png"" style= ""width:200px""alt=""img"">
                            </div>
                        </div>",0,"",0,"",NA,"","images/map23_Blues_scaleDef_orientDef_270.png","disgust",1,23,23,"Blues","orientDef","scaleDef","270",NA,NA
"","","","","","html-slider-response",153,17356315,"0.0-149.0","c7755auwwr",45,NA,"<div style=""width:500px;"">
                            <p style=""font-size:50px; font-weight:bold;""
                            >disgust</p>
                            <div style=""width:240px; margin: auto;"">
                                <img src=""images/map05_YlGn_scaleRev_orientDef_180.png"" style= ""width:200px""alt=""img"">
                            </div>
                        </div>",0,"",0,"",NA,"","images/map05_YlGn_scaleRev_orientDef_180.png","disgust",1,5,5,"YlGn","orientDef","scaleRev","180",NA,NA
"","","","","","html-slider-response",154,17430188,"0.0-150.0","c7755auwwr",45,NA,"<div style=""width:500px;"">
                            <p style=""font-size:50px; font-weight:bold;""
                            >disgust</p>
                            <div style=""width:240px; margin: auto;"">
                                <img src=""images/map05_BrBG_scaleDef_orientMir_270.png"" style= ""width:200px""alt=""img"">
                            </div>
                        </div>",0.835,"",0,"",NA,"","images/map05_BrBG_scaleDef_orientMir_270.png","disgust",1,5,5,"BrBG","orientMir","scaleDef","270",NA,NA
"","","","","","html-slider-response",155,17450748,"0.0-151.0","c7755auwwr",45,NA,"<div style=""width:500px;"">
                            <p style=""font-size:50px; font-weight:bold;""
                            >disgust</p>
                            <div style=""width:240px; margin: auto;"">
                                <img src=""images/map23_Purples_scaleRev_orientDef_180.png"" style= ""width:200px""alt=""img"">
                            </div>
                        </div>",0.305,"",0,"",NA,"","images/map23_Purples_scaleRev_orientDef_180.png","disgust",1,23,23,"Purples","orientDef","scaleRev","180",NA,NA
"","","","","","html-slider-response",156,17462514,"0.0-152.0","c7755auwwr",45,NA,"<div style=""width:500px;"">
                            <p style=""font-size:50px; font-weight:bold;""
                            >disgust</p>
                            <div style=""width:240px; margin: auto;"">
                                <img src=""images/map13_viridis_scaleRev_orientMir_180.png"" style= ""width:200px""alt=""img"">
                            </div>
                        </div>",0.3375,"",0,"",NA,"","images/map13_viridis_scaleRev_orientMir_180.png","disgust",1,13,13,"viridis","orientMir","scaleRev","180",NA,NA
"","","","","","html-slider-response",157,17464849,"0.0-153.0","c7755auwwr",45,NA,"<div style=""width:500px;"">
                            <p style=""font-size:50px; font-weight:bold;""
                            >disgust</p>
                            <div style=""width:240px; margin: auto;"">
                                <img src=""images/map26_OrRd_scaleDef_orientMir_270.png"" style= ""width:200px""alt=""img"">
                            </div>
                        </div>",0.1375,"",0,"",NA,"","images/map26_OrRd_scaleDef_orientMir_270.png","disgust",1,26,26,"OrRd","orientMir","scaleDef","270",NA,NA
"","","","","","html-slider-response",158,17470481,"0.0-154.0","c7755auwwr",45,NA,"<div style=""width:500px;"">
                            <p style=""font-size:50px; font-weight:bold;""
                            >disgust</p>
                            <div style=""width:240px; margin: auto;"">
                                <img src=""images/map07_RdYlBu_scaleDef_orientMir_270.png"" style= ""width:200px""alt=""img"">
                            </div>
                        </div>",0.8,"",0,"",NA,"","images/map07_RdYlBu_scaleDef_orientMir_270.png","disgust",1,7,7,"RdYlBu","orientMir","scaleDef","270",NA,NA
"","","","","","html-slider-response",159,17477463,"0.0-155.0","c7755auwwr",45,NA,"<div style=""width:500px;"">
                            <p style=""font-size:50px; font-weight:bold;""
                            >disgust</p>
                            <div style=""width:240px; margin: auto;"">
                                <img src=""images/map10_RdYlGn_scaleDef_orientDef_090.png"" style= ""width:200px""alt=""img"">
                            </div>
                        </div>",0.97,"",0,"",NA,"","images/map10_RdYlGn_scaleDef_orientDef_090.png","disgust",1,10,10,"RdYlGn","orientDef","scaleDef","090",NA,NA
"","","","","","html-slider-response",160,17480782,"0.0-156.0","c7755auwwr",45,NA,"<div style=""width:500px;"">
                            <p style=""font-size:50px; font-weight:bold;""
                            >disgust</p>
                            <div style=""width:240px; margin: auto;"">
                                <img src=""images/map15_inferno_scaleDef_orientDef_090.png"" style= ""width:200px""alt=""img"">
                            </div>
                        </div>",0.1225,"",0,"",NA,"","images/map15_inferno_scaleDef_orientDef_090.png","disgust",1,15,15,"inferno","orientDef","scaleDef","090",NA,NA
"","","","","","html-slider-response",161,17483531,"0.0-157.0","c7755auwwr",45,NA,"<div style=""width:500px;"">
                            <p style=""font-size:50px; font-weight:bold;""
                            >disgust</p>
                            <div style=""width:240px; margin: auto;"">
