"success","timeout","failed_images","failed_audio","failed_video","trial_type","trial_index","time_elapsed","internal_node_id","subject_id","condition_num","rt","stimulus","response","question_order","slider_start","practiceTrial","practiceTrialNum","correct","image_path","concept","repetition","map_id","map_num","scale_name","orientation_code","mapping_code","rotation_code","ishihara_plate","correct_response"
"true","false","[]","[]","[]","preload",0,953,"0.0-0.0","0s7moyqf2e",6,NA,"",NA,"",NA,"",NA,"","","",NA,NA,NA,"","","","",NA,NA
"","","","","","html-button-response",1,2700,"0.0-1.0","0s7moyqf2e",6,1743,"Welcome to our experiment!<p>At the bottom of this screen, you will see a button that says ""Begin Experiment"".<br>Please only click that button when you are ready to complete the 30 minute experiment in one sitting.</p><p> Once you click that button, it will not be possible to restart the experiment.",0.5,"",NA,"",NA,"","","",NA,NA,NA,"","","","",NA,NA
"true","","","","","fullscreen",2,7407,"0.0-2.0","0s7moyqf2e",6,3704,"",NA,"",NA,"",NA,"","","",NA,NA,NA,"","","","",NA,NA
"","","","","","survey-multi-select",3,85439,"0.0-3.0","0s7moyqf2e",6,78028,"",NA,"[0]",NA,"",NA,"","","",NA,NA,NA,"","","","",NA,NA
"","","","","","html-button-response",4,89422,"0.0-4.0","0s7moyqf2e",6,3980,"Welcome! <p> This experiment involves two parts: demographic information, followed by the experimental task.<p> It will take about 30 minutes to complete both parts.",0.5,"",NA,"",NA,"","","",NA,NA,NA,"","","","",NA,NA
"","","","","","survey-text",5,116030,"0.0-5.0","0s7moyqf2e",6,26578,"",NA,"",NA,"",NA,"","","",NA,NA,NA,"","","","",NA,NA
"","","","","","html-slider-response",6,164372,"0.0-6.0","0s7moyqf2e",6,48335,"<div style='text-align:left; font-size:20px; line-height:25px; width: 1000px;'>
                                During this experiment you will be asked to rate how much you associate maps with                    different concepts.<br> Below, you can see some examples of the maps you will be asked to rate. Above the maps
                    is the list of concepts.<br>You will be asked                    to rate how much you associate each map with each concept on a scale from 'not at all' to 'very much' like the
                    one below. <br><br>
                    Now, please look at the list of concepts and maps. For each concept, think about the map you associate 'very
                    much' with the concept.<br>                     When you see that map during the experiment, please rate it near the 'very much' endpoint of the
                    scale.<br>Now, please think about which map you associate 'not at all'                     with each concept. When you see that map during the experiment, please rate it near the 'not at all' endpoint
                    of the scale.<br>
                    Please use the full range of the scale. That is, if a map is somewhat associated with the concept, you would
                    click partway between the middle point and right side of the scale.                    You will be asked to rate each map for a given concept before moving on to the next concept.<br>Press the
                    'Continue' button for instructions on how to use the slider.                    <br>
                </div>

                <div style=""width: 500px; margin: 0 auto;"">
                    <!-- Centered text paragraphs -->
                    <div style=""text-align: center; width: 500px;"">
                        <p style=""font-size:25px; line-height:15px;"">
                            happy&nbsp;&nbsp;&nbsp;&nbsp;
                            fearful&nbsp;&nbsp;&nbsp;&nbsp;
                            sad&nbsp;&nbsp;&nbsp;&nbsp;
                            disgust&nbsp;&nbsp;&nbsp;&nbsp;
                            angry
                        </p>
                        <!-- <p style=""font-size:20px; line-height:15px;"">fearful</p>
                        <p style=""font-size:20px;line-height:15px;"">sad</p>
                        <p style=""font-size:20px;line-height:15px;"">disgust</p>
                        <p style=""font-size:20px;line-height:15px;"">angry</p> -->
                    </div>
            

                    <!-- Grid section -->
                   <div style=""display: flex; justify-content: center; padding-top: 15px;"">
                    <div style=""display: grid; grid-template-columns: repeat(10, 55px); grid-gap: 5px; width: auto;"">
                        <img src=""images/map05_inferno_scaleRev_orientDef_270.png"" alt=""map"" style=""width: 100%;""><img src=""images/map10_YlOrBr_scaleDef_orientMir_000.png"" alt=""map"" style=""width: 100%;""><img src=""images/map13_GnBu_scaleDef_orientDef_000.png"" alt=""map"" style=""width: 100%;""><img src=""images/map23_RdGy_scaleRev_orientMir_090.png"" alt=""map"" style=""width: 100%;""><img src=""images/map13_PuBuGn_scaleDef_orientMir_180.png"" alt=""map"" style=""width: 100%;""><img src=""images/map12_PuRd_scaleRev_orientDef_270.png"" alt=""map"" style=""width: 100%;""><img src=""images/map27_berlin_scaleDef_orientMir_000.png"" alt=""map"" style=""width: 100%;""><img src=""images/map23_BrBG_scaleRev_orientDef_090.png"" alt=""map"" style=""width: 100%;""><img src=""images/map07_Purples_scaleDef_orientDef_180.png"" alt=""map"" style=""width: 100%;""><img src=""images/map13_YlGnBu_scaleRev_orientMir_090.png"" alt=""map"" style=""width: 100%;""><img src=""images/map27_bwr_scaleDef_orientDef_000.png"" alt=""map"" style=""width: 100%;""><img src=""images/map27_seismic_scaleRev_orientDef_270.png"" alt=""map"" style=""width: 100%;""><img src=""images/map02_turbo_scaleDef_orientMir_000.png"" alt=""map"" style=""width: 100%;""><img src=""images/map05_plasma_scaleDef_orientDef_000.png"" alt=""map"" style=""width: 100%;""><img src=""images/map12_RdPu_scaleRev_orientMir_090.png"" alt=""map"" style=""width: 100%;""><img src=""images/map02_vanimo_scaleRev_orientDef_090.png"" alt=""map"" style=""width: 100%;""><img src=""images/map02_gist_earth_scaleDef_orientDef_180.png"" alt=""map"" style=""width: 100%;""><img src=""images/map15_PiYG_scaleDef_orientMir_000.png"" alt=""map"" style=""width: 100%;""><img src=""images/map05_cividis_scaleDef_orientMir_180.png"" alt=""map"" style=""width: 100%;""><img src=""images/map15_BuGn_scaleDef_orientDef_000.png"" alt=""map"" style=""width: 100%;""><img src=""images/map10_Reds_scaleRev_orientDef_270.png"" alt=""map"" style=""width: 100%;""><img src=""images/map10_Oranges_scaleRev_orientDef_090.png"" alt=""map"" style=""width: 100%;""><img src=""images/map07_Greys_scaleRev_orientDef_090.png"" alt=""map"" style=""width: 100%;""><img src=""images/map27_managua_scaleDef_orientMir_180.png"" alt=""map"" style=""width: 100%;""><img src=""images/map05_magma_scaleDef_orientMir_000.png"" alt=""map"" style=""width: 100%;""><img src=""images/map26_RdYlBu_scaleDef_orientDef_000.png"" alt=""map"" style=""width: 100%;""><img src=""images/map12_BuPu_scaleDef_orientMir_180.png"" alt=""map"" style=""width: 100%;""><img src=""images/map12_OrRd_scaleRev_orientDef_090.png"" alt=""map"" style=""width: 100%;""><img src=""images/map15_YlGn_scaleRev_orientDef_270.png"" alt=""map"" style=""width: 100%;""><img src=""images/map26_coolwarm_scaleRev_orientMir_270.png"" alt=""map"" style=""width: 100%;""><img src=""images/map02_viridis_scaleDef_orientMir_180.png"" alt=""map"" style=""width: 100%;""><img src=""images/map07_Greens_scaleRev_orientMir_270.png"" alt=""map"" style=""width: 100%;""><img src=""images/map23_RdBu_scaleDef_orientMir_180.png"" alt=""map"" style=""width: 100%;""><img src=""images/map26_RdYlGn_scaleDef_orientDef_180.png"" alt=""map"" style=""width: 100%;""><img src=""images/map26_Spectral_scaleRev_orientMir_090.png"" alt=""map"" style=""width: 100%;""><img src=""images/map07_Blues_scaleDef_orientMir_000.png"" alt=""map"" style=""width: 100%;""><img src=""images/map15_PRGn_scaleRev_orientMir_270.png"" alt=""map"" style=""width: 100%;""><img src=""images/map23_PuOr_scaleDef_orientDef_180.png"" alt=""map"" style=""width: 100%;""><img src=""images/map13_PuBu_scaleRev_orientDef_270.png"" alt=""map"" style=""width: 100%;""><img src=""images/map10_YlOrRd_scaleRev_orientMir_270.png"" alt=""map"" style=""width: 100%;"">
                    </div>
                </div>

                    <!-- Clear floats -->
                    <div style=""clear: both;""></div>
                </div>
                            ",0.1125,"",0,"true",NA,"","","",NA,NA,NA,"","","","",NA,NA
"","","","","","html-button-response",7,166941,"0.0-7.0","0s7moyqf2e",6,2564,"<div style=""width:800px;""><p style=""text-align:left"">To move the slider, click and drag your cursor to the location of the scale where you would like to make your rating and then let go. When you let go of the slider, your response will be recorded and the next trial will begin. <br>
                    We are interested in your initial impressions of each map for the given concept, so please go with your first intuition. <br>
                    Before you begin the experiment, there will be four training trials for you to practice using the scale. <br>
                     When you are ready to start the training trials, please click ""Continue"".</p><br></div>",0.5,"",NA,"",NA,"","","",NA,NA,NA,"","","","",NA,NA
"","","","","","html-slider-response",8,173049,"0.0-8.0-0.0","0s7moyqf2e",6,NA,"<div style=""width:500px;"">
                                    <p style=""font-size:25px;"">Please move the slider all the way to the <br> right endpoint of the scale</p>

                                    </div>
                                </div>",1,"",0,"true",0,"true","","",NA,NA,NA,"","","","",NA,NA
"","","","","","html-button-response",9,175012,"0.0-8.0-1.0","0s7moyqf2e",6,1460,"<p align='center'><b>Good job!</b> Click on 'Continue' to proceed.</p>",0.5,"",NA,"",NA,"","","",NA,NA,NA,"","","","",NA,NA
"","","","","","html-slider-response",10,177839,"0.0-9.0-0.0","0s7moyqf2e",6,NA,"<div style=""width:500px;"">
                                    <p style=""font-size:25px;"">Please move the slider all the way to the <br> left endpoint of the scale</p>

                                    </div>
                                </div>",0,"",0,"true",1,"true","","",NA,NA,NA,"","","","",NA,NA
"","","","","","html-button-response",11,179595,"0.0-9.0-1.0","0s7moyqf2e",6,1247,"<p align='center'><b>Good job!</b> Click on 'Continue' to proceed.</p>",0.5,"",NA,"",NA,"","","",NA,NA,NA,"","","","",NA,NA
"","","","","","html-slider-response",12,187382,"0.0-10.0-0.0","0s7moyqf2e",6,NA,"<div style=""width:500px;"">
                                    <p style=""font-size:25px;"">Please move the slider halfway between the center and right endpoint of the scale</p>

                                    </div>
                                </div>",0.7575,"",0,"true",2,"true","","",NA,NA,NA,"","","","",NA,NA
"","","","","","html-button-response",13,188874,"0.0-10.0-1.0","0s7moyqf2e",6,988,"<p align='center'><b>Good job!</b> Click on 'Continue' to proceed.</p>",0.5,"",NA,"",NA,"","","",NA,NA,NA,"","","","",NA,NA
"","","","","","html-slider-response",14,192667,"0.0-11.0-0.0","0s7moyqf2e",6,NA,"<div style=""width:500px;"">
                                    <p style=""font-size:25px;"">Please move the slider halfway between the center and left endpoint of the scale</p>

                                    </div>
                                </div>",0.2375,"",0,"true",3,"true","","",NA,NA,NA,"","","","",NA,NA
"","","","","","html-button-response",15,194038,"0.0-11.0-1.0","0s7moyqf2e",6,870,"<p align='center'><b>Good job!</b> Click on 'Continue' to proceed.</p>",0.5,"",NA,"",NA,"","","",NA,NA,NA,"","","","",NA,NA
"","","","","","html-button-response",16,196409,"0.0-12.0","0s7moyqf2e",6,2369,"<p>Great job! You've completed the practice trials. Now you will begin the main task.</p>",0.5,"",NA,"",NA,"","","",NA,NA,NA,"","","","",NA,NA
"","","","","","html-button-response",17,202969,"0.0-13.0","0s7moyqf2e",6,6558,"<p>In this block of trials, you will be asked to rate how much you associate each map with:</p > <p style = 'font-size:150%; font-weight: bold'>happy</p><br></br>",0.5,"",NA,"",NA,"","","",NA,NA,NA,"","","","",NA,NA
"","","","","","html-slider-response",18,210530,"0.0-14.0","0s7moyqf2e",6,NA,"<div style=""width:500px;"">
                            <p style=""font-size:50px; font-weight:bold;""
                            >happy</p>
                            <div style=""width:240px; margin: auto;"">
                                <img src=""images/map07_Greens_scaleRev_orientMir_270.png"" style= ""width:200px""alt=""img"">
                            </div>
                        </div>",0.4075,"",0,"",NA,"","images/map07_Greens_scaleRev_orientMir_270.png","happy",1,7,7,"Greens","orientMir","scaleRev","270",NA,NA
"","","","","","html-slider-response",19,214435,"0.0-15.0","0s7moyqf2e",6,NA,"<div style=""width:500px;"">
                            <p style=""font-size:50px; font-weight:bold;""
                            >happy</p>
                            <div style=""width:240px; margin: auto;"">
                                <img src=""images/map05_inferno_scaleDef_orientDef_180.png"" style= ""width:200px""alt=""img"">
                            </div>
                        </div>",0.7075,"",0,"",NA,"","images/map05_inferno_scaleDef_orientDef_180.png","happy",1,5,5,"inferno","orientDef","scaleDef","180",NA,NA
"","","","","","html-slider-response",20,218188,"0.0-16.0","0s7moyqf2e",6,NA,"<div style=""width:500px;"">
                            <p style=""font-size:50px; font-weight:bold;""
                            >happy</p>
                            <div style=""width:240px; margin: auto;"">
                                <img src=""images/map05_plasma_scaleRev_orientDef_090.png"" style= ""width:200px""alt=""img"">
                            </div>
                        </div>",0.74,"",0,"",NA,"","images/map05_plasma_scaleRev_orientDef_090.png","happy",1,5,5,"plasma","orientDef","scaleRev","090",NA,NA
"","","","","","html-slider-response",21,221715,"0.0-17.0","0s7moyqf2e",6,NA,"<div style=""width:500px;"">
                            <p style=""font-size:50px; font-weight:bold;""
                            >happy</p>
                            <div style=""width:240px; margin: auto;"">
                                <img src=""images/map26_Spectral_scaleDef_orientMir_000.png"" style= ""width:200px""alt=""img"">
                            </div>
                        </div>",0.7325,"",0,"",NA,"","images/map26_Spectral_scaleDef_orientMir_000.png","happy",1,26,26,"Spectral","orientMir","scaleDef","000",NA,NA
"","","","","","html-slider-response",22,225962,"0.0-18.0","0s7moyqf2e",6,NA,"<div style=""width:500px;"">
                            <p style=""font-size:50px; font-weight:bold;""
                            >happy</p>
                            <div style=""width:240px; margin: auto;"">
                                <img src=""images/map05_cividis_scaleRev_orientMir_270.png"" style= ""width:200px""alt=""img"">
                            </div>
                        </div>",0.735,"",0,"",NA,"","images/map05_cividis_scaleRev_orientMir_270.png","happy",1,5,5,"cividis","orientMir","scaleRev","270",NA,NA
"","","","","","html-slider-response",23,229035,"0.0-19.0","0s7moyqf2e",6,NA,"<div style=""width:500px;"">
                            <p style=""font-size:50px; font-weight:bold;""
                            >happy</p>
                            <div style=""width:240px; margin: auto;"">
                                <img src=""images/map13_YlGnBu_scaleRev_orientMir_090.png"" style= ""width:200px""alt=""img"">
                            </div>
                        </div>",1,"",0,"",NA,"","images/map13_YlGnBu_scaleRev_orientMir_090.png","happy",1,13,13,"YlGnBu","orientMir","scaleRev","090",NA,NA
"","","","","","html-slider-response",24,232928,"0.0-20.0","0s7moyqf2e",6,NA,"<div style=""width:500px;"">
                            <p style=""font-size:50px; font-weight:bold;""
                            >happy</p>
                            <div style=""width:240px; margin: auto;"">
                                <img src=""images/map15_PiYG_scaleRev_orientMir_090.png"" style= ""width:200px""alt=""img"">
                            </div>
                        </div>",0.2325,"",0,"",NA,"","images/map15_PiYG_scaleRev_orientMir_090.png","happy",1,15,15,"PiYG","orientMir","scaleRev","090",NA,NA
"","","","","","html-slider-response",25,236197,"0.0-21.0","0s7moyqf2e",6,NA,"<div style=""width:500px;"">
                            <p style=""font-size:50px; font-weight:bold;""
                            >happy</p>
                            <div style=""width:240px; margin: auto;"">
                                <img src=""images/map15_PiYG_scaleDef_orientMir_000.png"" style= ""width:200px""alt=""img"">
                            </div>
                        </div>",0.215,"",0,"",NA,"","images/map15_PiYG_scaleDef_orientMir_000.png","happy",1,15,15,"PiYG","orientMir","scaleDef","000",NA,NA
"","","","","","html-slider-response",26,239862,"0.0-22.0","0s7moyqf2e",6,NA,"<div style=""width:500px;"">
                            <p style=""font-size:50px; font-weight:bold;""
                            >happy</p>
                            <div style=""width:240px; margin: auto;"">
                                <img src=""images/map12_RdPu_scaleDef_orientMir_000.png"" style= ""width:200px""alt=""img"">
                            </div>
                        </div>",0.625,"",0,"",NA,"","images/map12_RdPu_scaleDef_orientMir_000.png","happy",1,12,12,"RdPu","orientMir","scaleDef","000",NA,NA
"","","","","","html-slider-response",27,243172,"0.0-23.0","0s7moyqf2e",6,NA,"<div style=""width:500px;"">
                            <p style=""font-size:50px; font-weight:bold;""
                            >happy</p>
                            <div style=""width:240px; margin: auto;"">
                                <img src=""images/map23_PuOr_scaleDef_orientDef_180.png"" style= ""width:200px""alt=""img"">
                            </div>
                        </div>",0.4,"",0,"",NA,"","images/map23_PuOr_scaleDef_orientDef_180.png","happy",1,23,23,"PuOr","orientDef","scaleDef","180",NA,NA
"","","","","","html-slider-response",28,246895,"0.0-24.0","0s7moyqf2e",6,NA,"<div style=""width:500px;"">
                            <p style=""font-size:50px; font-weight:bold;""
                            >happy</p>
                            <div style=""width:240px; margin: auto;"">
                                <img src=""images/map12_BuPu_scaleRev_orientMir_270.png"" style= ""width:200px""alt=""img"">
                            </div>
                        </div>",0.385,"",0,"",NA,"","images/map12_BuPu_scaleRev_orientMir_270.png","happy",1,12,12,"BuPu","orientMir","scaleRev","270",NA,NA
"","","","","","html-slider-response",29,250954,"0.0-25.0","0s7moyqf2e",6,NA,"<div style=""width:500px;"">
                            <p style=""font-size:50px; font-weight:bold;""
                            >happy</p>
                            <div style=""width:240px; margin: auto;"">
                                <img src=""images/map15_YlGn_scaleDef_orientDef_180.png"" style= ""width:200px""alt=""img"">
                            </div>
                        </div>",0.58,"",0,"",NA,"","images/map15_YlGn_scaleDef_orientDef_180.png","happy",1,15,15,"YlGn","orientDef","scaleDef","180",NA,NA
"","","","","","html-slider-response",30,253895,"0.0-26.0","0s7moyqf2e",6,NA,"<div style=""width:500px;"">
                            <p style=""font-size:50px; font-weight:bold;""
                            >happy</p>
                            <div style=""width:240px; margin: auto;"">
                                <img src=""images/map15_BuGn_scaleDef_orientDef_000.png"" style= ""width:200px""alt=""img"">
                            </div>
                        </div>",0.5875,"",0,"",NA,"","images/map15_BuGn_scaleDef_orientDef_000.png","happy",1,15,15,"BuGn","orientDef","scaleDef","000",NA,NA
"","","","","","html-slider-response",31,256261,"0.0-27.0","0s7moyqf2e",6,NA,"<div style=""width:500px;"">
                            <p style=""font-size:50px; font-weight:bold;""
                            >happy</p>
                            <div style=""width:240px; margin: auto;"">
                                <img src=""images/map15_PRGn_scaleRev_orientMir_270.png"" style= ""width:200px""alt=""img"">
                            </div>
                        </div>",0.365,"",0,"",NA,"","images/map15_PRGn_scaleRev_orientMir_270.png","happy",1,15,15,"PRGn","orientMir","scaleRev","270",NA,NA
"","","","","","html-slider-response",32,260660,"0.0-28.0","0s7moyqf2e",6,NA,"<div style=""width:500px;"">
                            <p style=""font-size:50px; font-weight:bold;""
                            >happy</p>
                            <div style=""width:240px; margin: auto;"">
                                <img src=""images/map10_Reds_scaleRev_orientDef_270.png"" style= ""width:200px""alt=""img"">
                            </div>
                        </div>",0,"",0,"",NA,"","images/map10_Reds_scaleRev_orientDef_270.png","happy",1,10,10,"Reds","orientDef","scaleRev","270",NA,NA
"","","","","","html-slider-response",33,264443,"0.0-29.0","0s7moyqf2e",6,NA,"<div style=""width:500px;"">
                            <p style=""font-size:50px; font-weight:bold;""
                            >happy</p>
                            <div style=""width:240px; margin: auto;"">
                                <img src=""images/map13_PuBuGn_scaleRev_orientMir_270.png"" style= ""width:200px""alt=""img"">
                            </div>
                        </div>",1,"",0,"",NA,"","images/map13_PuBuGn_scaleRev_orientMir_270.png","happy",1,13,13,"PuBuGn","orientMir","scaleRev","270",NA,NA
"","","","","","html-slider-response",34,268260,"0.0-30.0","0s7moyqf2e",6,NA,"<div style=""width:500px;"">
                            <p style=""font-size:50px; font-weight:bold;""
                            >happy</p>
                            <div style=""width:240px; margin: auto;"">
                                <img src=""images/map10_YlOrRd_scaleDef_orientMir_180.png"" style= ""width:200px""alt=""img"">
                            </div>
                        </div>",0.2825,"",0,"",NA,"","images/map10_YlOrRd_scaleDef_orientMir_180.png","happy",1,10,10,"YlOrRd","orientMir","scaleDef","180",NA,NA
"","","","","","html-slider-response",35,272428,"0.0-31.0","0s7moyqf2e",6,NA,"<div style=""width:500px;"">
                            <p style=""font-size:50px; font-weight:bold;""
                            >happy</p>
                            <div style=""width:240px; margin: auto;"">
                                <img src=""images/map26_Spectral_scaleRev_orientMir_090.png"" style= ""width:200px""alt=""img"">
                            </div>
                        </div>",0.6425,"",0,"",NA,"","images/map26_Spectral_scaleRev_orientMir_090.png","happy",1,26,26,"Spectral","orientMir","scaleRev","090",NA,NA
"","","","","","html-slider-response",36,275559,"0.0-32.0","0s7moyqf2e",6,NA,"<div style=""width:500px;"">
                            <p style=""font-size:50px; font-weight:bold;""
                            >happy</p>
                            <div style=""width:240px; margin: auto;"">
                                <img src=""images/map13_GnBu_scaleRev_orientDef_090.png"" style= ""width:200px""alt=""img"">
                            </div>
                        </div>",0.995,"",0,"",NA,"","images/map13_GnBu_scaleRev_orientDef_090.png","happy",1,13,13,"GnBu","orientDef","scaleRev","090",NA,NA
"","","","","","html-slider-response",37,278576,"0.0-33.0","0s7moyqf2e",6,NA,"<div style=""width:500px;"">
                            <p style=""font-size:50px; font-weight:bold;""
                            >happy</p>
                            <div style=""width:240px; margin: auto;"">
                                <img src=""images/map26_RdYlBu_scaleDef_orientDef_000.png"" style= ""width:200px""alt=""img"">
                            </div>
                        </div>",0.73,"",0,"",NA,"","images/map26_RdYlBu_scaleDef_orientDef_000.png","happy",1,26,26,"RdYlBu","orientDef","scaleDef","000",NA,NA
"","","","","","html-slider-response",38,281794,"0.0-34.0","0s7moyqf2e",6,NA,"<div style=""width:500px;"">
                            <p style=""font-size:50px; font-weight:bold;""
                            >happy</p>
                            <div style=""width:240px; margin: auto;"">
                                <img src=""images/map07_Blues_scaleDef_orientMir_000.png"" style= ""width:200px""alt=""img"">
                            </div>
                        </div>",0.575,"",0,"",NA,"","images/map07_Blues_scaleDef_orientMir_000.png","happy",1,7,7,"Blues","orientMir","scaleDef","000",NA,NA
"","","","","","html-slider-response",39,287127,"0.0-35.0","0s7moyqf2e",6,NA,"<div style=""width:500px;"">
                            <p style=""font-size:50px; font-weight:bold;""
                            >happy</p>
                            <div style=""width:240px; margin: auto;"">
                                <img src=""images/map27_managua_scaleRev_orientMir_270.png"" style= ""width:200px""alt=""img"">
                            </div>
                        </div>",0.4475,"",0,"",NA,"","images/map27_managua_scaleRev_orientMir_270.png","happy",1,27,27,"managua","orientMir","scaleRev","270",NA,NA
"","","","","","html-slider-response",40,289859,"0.0-36.0","0s7moyqf2e",6,NA,"<div style=""width:500px;"">
                            <p style=""font-size:50px; font-weight:bold;""
                            >happy</p>
                            <div style=""width:240px; margin: auto;"">
                                <img src=""images/map26_coolwarm_scaleRev_orientMir_270.png"" style= ""width:200px""alt=""img"">
                            </div>
                        </div>",0.135,"",0,"",NA,"","images/map26_coolwarm_scaleRev_orientMir_270.png","happy",1,26,26,"coolwarm","orientMir","scaleRev","270",NA,NA
"","","","","","html-slider-response",41,292492,"0.0-37.0","0s7moyqf2e",6,NA,"<div style=""width:500px;"">
                            <p style=""font-size:50px; font-weight:bold;""
                            >happy</p>
                            <div style=""width:240px; margin: auto;"">
                                <img src=""images/map10_YlOrRd_scaleRev_orientMir_270.png"" style= ""width:200px""alt=""img"">
                            </div>
                        </div>",0.395,"",0,"",NA,"","images/map10_YlOrRd_scaleRev_orientMir_270.png","happy",1,10,10,"YlOrRd","orientMir","scaleRev","270",NA,NA
"","","","","","html-slider-response",42,295109,"0.0-38.0","0s7moyqf2e",6,NA,"<div style=""width:500px;"">
                            <p style=""font-size:50px; font-weight:bold;""
                            >happy</p>
                            <div style=""width:240px; margin: auto;"">
                                <img src=""images/map23_RdBu_scaleRev_orientMir_270.png"" style= ""width:200px""alt=""img"">
                            </div>
                        </div>",0.3875,"",0,"",NA,"","images/map23_RdBu_scaleRev_orientMir_270.png","happy",1,23,23,"RdBu","orientMir","scaleRev","270",NA,NA
"","","","","","html-slider-response",43,298676,"0.0-39.0","0s7moyqf2e",6,NA,"<div style=""width:500px;"">
                            <p style=""font-size:50px; font-weight:bold;""
                            >happy</p>
                            <div style=""width:240px; margin: auto;"">
                                <img src=""images/map07_Purples_scaleRev_orientDef_270.png"" style= ""width:200px""alt=""img"">
                            </div>
                        </div>",0.54,"",0,"",NA,"","images/map07_Purples_scaleRev_orientDef_270.png","happy",1,7,7,"Purples","orientDef","scaleRev","270",NA,NA
"","","","","","html-slider-response",44,301476,"0.0-40.0","0s7moyqf2e",6,NA,"<div style=""width:500px;"">
                            <p style=""font-size:50px; font-weight:bold;""
                            >happy</p>
                            <div style=""width:240px; margin: auto;"">
                                <img src=""images/map23_BrBG_scaleRev_orientDef_090.png"" style= ""width:200px""alt=""img"">
                            </div>
                        </div>",0.865,"",0,"",NA,"","images/map23_BrBG_scaleRev_orientDef_090.png","happy",1,23,23,"BrBG","orientDef","scaleRev","090",NA,NA
"","","","","","html-slider-response",45,304574,"0.0-41.0","0s7moyqf2e",6,NA,"<div style=""width:500px;"">
                            <p style=""font-size:50px; font-weight:bold;""
                            >happy</p>
                            <div style=""width:240px; margin: auto;"">
                                <img src=""images/map12_BuPu_scaleDef_orientMir_180.png"" style= ""width:200px""alt=""img"">
                            </div>
                        </div>",0,"",0,"",NA,"","images/map12_BuPu_scaleDef_orientMir_180.png","happy",1,12,12,"BuPu","orientMir","scaleDef","180",NA,NA
"","","","","","html-slider-response",46,306924,"0.0-42.0","0s7moyqf2e",6,NA,"<div style=""width:500px;"">
                            <p style=""font-size:50px; font-weight:bold;""
                            >happy</p>
                            <div style=""width:240px; margin: auto;"">
                                <img src=""images/map07_Blues_scaleRev_orientMir_090.png"" style= ""width:200px""alt=""img"">
                            </div>
                        </div>",0.525,"",0,"",NA,"","images/map07_Blues_scaleRev_orientMir_090.png","happy",1,7,7,"Blues","orientMir","scaleRev","090",NA,NA
"","","","","","html-slider-response",47,309441,"0.0-43.0","0s7moyqf2e",6,NA,"<div style=""width:500px;"">
                            <p style=""font-size:50px; font-weight:bold;""
                            >happy</p>
                            <div style=""width:240px; margin: auto;"">
                                <img src=""images/map05_magma_scaleDef_orientMir_000.png"" style= ""width:200px""alt=""img"">
                            </div>
                        </div>",0.04,"",0,"",NA,"","images/map05_magma_scaleDef_orientMir_000.png","happy",1,5,5,"magma","orientMir","scaleDef","000",NA,NA
"","","","","","html-slider-response",48,312074,"0.0-44.0","0s7moyqf2e",6,NA,"<div style=""width:500px;"">
                            <p style=""font-size:50px; font-weight:bold;""
                            >happy</p>
                            <div style=""width:240px; margin: auto;"">
                                <img src=""images/map23_RdGy_scaleDef_orientMir_000.png"" style= ""width:200px""alt=""img"">
                            </div>
                        </div>",0,"",0,"",NA,"","images/map23_RdGy_scaleDef_orientMir_000.png","happy",1,23,23,"RdGy","orientMir","scaleDef","000",NA,NA
"","","","","","html-slider-response",49,315282,"0.0-45.0","0s7moyqf2e",6,NA,"<div style=""width:500px;"">
                            <p style=""font-size:50px; font-weight:bold;""
                            >happy</p>
                            <div style=""width:240px; margin: auto;"">
                                <img src=""images/map05_magma_scaleRev_orientMir_090.png"" style= ""width:200px""alt=""img"">
                            </div>
                        </div>",0,"",0,"",NA,"","images/map05_magma_scaleRev_orientMir_090.png","happy",1,5,5,"magma","orientMir","scaleRev","090",NA,NA
"","","","","","html-slider-response",50,318918,"0.0-46.0","0s7moyqf2e",6,NA,"<div style=""width:500px;"">
                            <p style=""font-size:50px; font-weight:bold;""
                            >happy</p>
                            <div style=""width:240px; margin: auto;"">
                                <img src=""images/map12_PuRd_scaleDef_orientDef_180.png"" style= ""width:200px""alt=""img"">
                            </div>
                        </div>",0.6225,"",0,"",NA,"","images/map12_PuRd_scaleDef_orientDef_180.png","happy",1,12,12,"PuRd","orientDef","scaleDef","180",NA,NA
"","","","","","html-slider-response",51,321750,"0.0-47.0","0s7moyqf2e",6,NA,"<div style=""width:500px;"">
                            <p style=""font-size:50px; font-weight:bold;""
                            >happy</p>
                            <div style=""width:240px; margin: auto;"">
                                <img src=""images/map26_RdYlBu_scaleRev_orientDef_090.png"" style= ""width:200px""alt=""img"">
                            </div>
                        </div>",0.575,"",0,"",NA,"","images/map26_RdYlBu_scaleRev_orientDef_090.png","happy",1,26,26,"RdYlBu","orientDef","scaleRev","090",NA,NA
"","","","","","html-slider-response",52,324057,"0.0-48.0","0s7moyqf2e",6,NA,"<div style=""width:500px;"">
                            <p style=""font-size:50px; font-weight:bold;""
                            >happy</p>
                            <div style=""width:240px; margin: auto;"">
                                <img src=""images/map07_Purples_scaleDef_orientDef_180.png"" style= ""width:200px""alt=""img"">
                            </div>
                        </div>",0.405,"",0,"",NA,"","images/map07_Purples_scaleDef_orientDef_180.png","happy",1,7,7,"Purples","orientDef","scaleDef","180",NA,NA
"","","","","","html-slider-response",53,326524,"0.0-49.0","0s7moyqf2e",6,NA,"<div style=""width:500px;"">
                            <p style=""font-size:50px; font-weight:bold;""
                            >happy</p>
                            <div style=""width:240px; margin: auto;"">
                                <img src=""images/map05_inferno_scaleRev_orientDef_270.png"" style= ""width:200px""alt=""img"">
                            </div>
                        </div>",0.045,"",0,"",NA,"","images/map05_inferno_scaleRev_orientDef_270.png","happy",1,5,5,"inferno","orientDef","scaleRev","270",NA,NA
"","","","","","html-slider-response",54,329140,"0.0-50.0","0s7moyqf2e",6,NA,"<div style=""width:500px;"">
                            <p style=""font-size:50px; font-weight:bold;""
                            >happy</p>
                            <div style=""width:240px; margin: auto;"">
                                <img src=""images/map12_PuRd_scaleRev_orientDef_270.png"" style= ""width:200px""alt=""img"">
                            </div>
                        </div>",0,"",0,"",NA,"","images/map12_PuRd_scaleRev_orientDef_270.png","happy",1,12,12,"PuRd","orientDef","scaleRev","270",NA,NA
"","","","","","html-slider-response",55,331990,"0.0-51.0","0s7moyqf2e",6,NA,"<div style=""width:500px;"">
                            <p style=""font-size:50px; font-weight:bold;""
                            >happy</p>
                            <div style=""width:240px; margin: auto;"">
                                <img src=""images/map02_turbo_scaleDef_orientMir_000.png"" style= ""width:200px""alt=""img"">
                            </div>
                        </div>",0,"",0,"",NA,"","images/map02_turbo_scaleDef_orientMir_000.png","happy",1,2,2,"turbo","orientMir","scaleDef","000",NA,NA
"","","","","","html-slider-response",56,335147,"0.0-52.0","0s7moyqf2e",6,NA,"<div style=""width:500px;"">
                            <p style=""font-size:50px; font-weight:bold;""
                            >happy</p>
                            <div style=""width:240px; margin: auto;"">
                                <img src=""images/map13_PuBu_scaleRev_orientDef_270.png"" style= ""width:200px""alt=""img"">
                            </div>
                        </div>",0.5675,"",0,"",NA,"","images/map13_PuBu_scaleRev_orientDef_270.png","happy",1,13,13,"PuBu","orientDef","scaleRev","270",NA,NA
"","","","","","html-slider-response",57,337990,"0.0-53.0","0s7moyqf2e",6,NA,"<div style=""width:500px;"">
                            <p style=""font-size:50px; font-weight:bold;""
                            >happy</p>
                            <div style=""width:240px; margin: auto;"">
                                <img src=""images/map02_vanimo_scaleRev_orientDef_090.png"" style= ""width:200px""alt=""img"">
                            </div>
                        </div>",0,"",0,"",NA,"","images/map02_vanimo_scaleRev_orientDef_090.png","happy",1,2,2,"vanimo","orientDef","scaleRev","090",NA,NA
"","","","","","html-button-response",58,343612,"0.0-54.0","0s7moyqf2e",6,5120,"<p>You are doing great!<br></br> You are halway done with the current block. When you are ready to continue, click the 'Continue' button.</p>",0.5,"",NA,"",NA,"","","",NA,NA,NA,"","","","",NA,NA
"","","","","","html-slider-response",59,347489,"0.0-55.0","0s7moyqf2e",6,NA,"<div style=""width:500px;"">
                            <p style=""font-size:50px; font-weight:bold;""
                            >happy</p>
                            <div style=""width:240px; margin: auto;"">
                                <img src=""images/map26_coolwarm_scaleDef_orientMir_180.png"" style= ""width:200px""alt=""img"">
                            </div>
                        </div>",0.3,"",0,"",NA,"","images/map26_coolwarm_scaleDef_orientMir_180.png","happy",1,26,26,"coolwarm","orientMir","scaleDef","180",NA,NA
"","","","","","html-slider-response",60,350772,"0.0-56.0","0s7moyqf2e",6,NA,"<div style=""width:500px;"">
                            <p style=""font-size:50px; font-weight:bold;""
                            >happy</p>
                            <div style=""width:240px; margin: auto;"">
                                <img src=""images/map13_GnBu_scaleDef_orientDef_000.png"" style= ""width:200px""alt=""img"">
                            </div>
                        </div>",0.5875,"",0,"",NA,"","images/map13_GnBu_scaleDef_orientDef_000.png","happy",1,13,13,"GnBu","orientDef","scaleDef","000",NA,NA
"","","","","","html-slider-response",61,354764,"0.0-57.0","0s7moyqf2e",6,NA,"<div style=""width:500px;"">
                            <p style=""font-size:50px; font-weight:bold;""
                            >happy</p>
                            <div style=""width:240px; margin: auto;"">
                                <img src=""images/map13_YlGnBu_scaleDef_orientMir_000.png"" style= ""width:200px""alt=""img"">
                            </div>
                        </div>",0.565,"",0,"",NA,"","images/map13_YlGnBu_scaleDef_orientMir_000.png","happy",1,13,13,"YlGnBu","orientMir","scaleDef","000",NA,NA
"","","","","","html-slider-response",62,358105,"0.0-58.0","0s7moyqf2e",6,NA,"<div style=""width:500px;"">
                            <p style=""font-size:50px; font-weight:bold;""
                            >happy</p>
                            <div style=""width:240px; margin: auto;"">
                                <img src=""images/map02_gist_earth_scaleDef_orientDef_180.png"" style= ""width:200px""alt=""img"">
                            </div>
                        </div>",0,"",0,"",NA,"","images/map02_gist_earth_scaleDef_orientDef_180.png","happy",1,2,2,"gist","scaleDef","earth","orientDef",NA,NA
"","","","","","html-slider-response",63,362178,"0.0-59.0","0s7moyqf2e",6,NA,"<div style=""width:500px;"">
                            <p style=""font-size:50px; font-weight:bold;""
                            >happy</p>
                            <div style=""width:240px; margin: auto;"">
                                <img src=""images/map05_cividis_scaleDef_orientMir_180.png"" style= ""width:200px""alt=""img"">
                            </div>
                        </div>",0.4525,"",0,"",NA,"","images/map05_cividis_scaleDef_orientMir_180.png","happy",1,5,5,"cividis","orientMir","scaleDef","180",NA,NA
"","","","","","html-slider-response",64,365615,"0.0-60.0","0s7moyqf2e",6,NA,"<div style=""width:500px;"">
                            <p style=""font-size:50px; font-weight:bold;""
                            >happy</p>
                            <div style=""width:240px; margin: auto;"">
                                <img src=""images/map12_RdPu_scaleRev_orientMir_090.png"" style= ""width:200px""alt=""img"">
                            </div>
                        </div>",0.4125,"",0,"",NA,"","images/map12_RdPu_scaleRev_orientMir_090.png","happy",1,12,12,"RdPu","orientMir","scaleRev","090",NA,NA
"","","","","","html-slider-response",65,368205,"0.0-61.0","0s7moyqf2e",6,NA,"<div style=""width:500px;"">
                            <p style=""font-size:50px; font-weight:bold;""
                            >happy</p>
                            <div style=""width:240px; margin: auto;"">
                                <img src=""images/map27_bwr_scaleDef_orientDef_000.png"" style= ""width:200px""alt=""img"">
                            </div>
                        </div>",0.0175,"",0,"",NA,"","images/map27_bwr_scaleDef_orientDef_000.png","happy",1,27,27,"bwr","orientDef","scaleDef","000",NA,NA
"","","","","","html-slider-response",66,371003,"0.0-62.0","0s7moyqf2e",6,NA,"<div style=""width:500px;"">
                            <p style=""font-size:50px; font-weight:bold;""
                            >happy</p>
                            <div style=""width:240px; margin: auto;"">
                                <img src=""images/map02_vanimo_scaleDef_orientDef_000.png"" style= ""width:200px""alt=""img"">
                            </div>
                        </div>",0,"",0,"",NA,"","images/map02_vanimo_scaleDef_orientDef_000.png","happy",1,2,2,"vanimo","orientDef","scaleDef","000",NA,NA
"","","","","","html-slider-response",67,374015,"0.0-63.0","0s7moyqf2e",6,NA,"<div style=""width:500px;"">
                            <p style=""font-size:50px; font-weight:bold;""
                            >happy</p>
                            <div style=""width:240px; margin: auto;"">
                                <img src=""images/map27_berlin_scaleRev_orientMir_090.png"" style= ""width:200px""alt=""img"">
                            </div>
                        </div>",0.015,"",0,"",NA,"","images/map27_berlin_scaleRev_orientMir_090.png","happy",1,27,27,"berlin","orientMir","scaleRev","090",NA,NA
"","","","","","html-slider-response",68,376879,"0.0-64.0","0s7moyqf2e",6,NA,"<div style=""width:500px;"">
                            <p style=""font-size:50px; font-weight:bold;""
                            >happy</p>
                            <div style=""width:240px; margin: auto;"">
                                <img src=""images/map27_berlin_scaleDef_orientMir_000.png"" style= ""width:200px""alt=""img"">
                            </div>
                        </div>",0.0075,"",0,"",NA,"","images/map27_berlin_scaleDef_orientMir_000.png","happy",1,27,27,"berlin","orientMir","scaleDef","000",NA,NA
"","","","","","html-slider-response",69,379736,"0.0-65.0","0s7moyqf2e",6,NA,"<div style=""width:500px;"">
                            <p style=""font-size:50px; font-weight:bold;""
                            >happy</p>
                            <div style=""width:240px; margin: auto;"">
                                <img src=""images/map26_RdYlGn_scaleRev_orientDef_270.png"" style= ""width:200px""alt=""img"">
                            </div>
                        </div>",0.025,"",0,"",NA,"","images/map26_RdYlGn_scaleRev_orientDef_270.png","happy",1,26,26,"RdYlGn","orientDef","scaleRev","270",NA,NA
"","","","","","html-slider-response",70,382386,"0.0-66.0","0s7moyqf2e",6,NA,"<div style=""width:500px;"">
                            <p style=""font-size:50px; font-weight:bold;""
                            >happy</p>
                            <div style=""width:240px; margin: auto;"">
                                <img src=""images/map15_PRGn_scaleDef_orientMir_180.png"" style= ""width:200px""alt=""img"">
                            </div>
                        </div>",0.015,"",0,"",NA,"","images/map15_PRGn_scaleDef_orientMir_180.png","happy",1,15,15,"PRGn","orientMir","scaleDef","180",NA,NA
"","","","","","html-slider-response",71,385603,"0.0-67.0","0s7moyqf2e",6,NA,"<div style=""width:500px;"">
                            <p style=""font-size:50px; font-weight:bold;""
                            >happy</p>
                            <div style=""width:240px; margin: auto;"">
                                <img src=""images/map26_RdYlGn_scaleDef_orientDef_180.png"" style= ""width:200px""alt=""img"">
                            </div>
                        </div>",0.0075,"",0,"",NA,"","images/map26_RdYlGn_scaleDef_orientDef_180.png","happy",1,26,26,"RdYlGn","orientDef","scaleDef","180",NA,NA
"","","","","","html-slider-response",72,388625,"0.0-68.0","0s7moyqf2e",6,NA,"<div style=""width:500px;"">
                            <p style=""font-size:50px; font-weight:bold;""
                            >happy</p>
                            <div style=""width:240px; margin: auto;"">
                                <img src=""images/map13_PuBu_scaleDef_orientDef_180.png"" style= ""width:200px""alt=""img"">
                            </div>
                        </div>",0.635,"",0,"",NA,"","images/map13_PuBu_scaleDef_orientDef_180.png","happy",1,13,13,"PuBu","orientDef","scaleDef","180",NA,NA
"","","","","","html-slider-response",73,391224,"0.0-69.0","0s7moyqf2e",6,NA,"<div style=""width:500px;"">
                            <p style=""font-size:50px; font-weight:bold;""
                            >happy</p>
                            <div style=""width:240px; margin: auto;"">
                                <img src=""images/map23_BrBG_scaleDef_orientDef_000.png"" style= ""width:200px""alt=""img"">
                            </div>
                        </div>",0,"",0,"",NA,"","images/map23_BrBG_scaleDef_orientDef_000.png","happy",1,23,23,"BrBG","orientDef","scaleDef","000",NA,NA
"","","","","","html-slider-response",74,393812,"0.0-70.0","0s7moyqf2e",6,NA,"<div style=""width:500px;"">
                            <p style=""font-size:50px; font-weight:bold;""
                            >happy</p>
                            <div style=""width:240px; margin: auto;"">
                                <img src=""images/map27_seismic_scaleDef_orientDef_180.png"" style= ""width:200px""alt=""img"">
                            </div>
                        </div>",0,"",0,"",NA,"","images/map27_seismic_scaleDef_orientDef_180.png","happy",1,27,27,"seismic","orientDef","scaleDef","180",NA,NA
"","","","","","html-slider-response",75,397068,"0.0-71.0","0s7moyqf2e",6,NA,"<div style=""width:500px;"">
                            <p style=""font-size:50px; font-weight:bold;""
                            >happy</p>
                            <div style=""width:240px; margin: auto;"">
                                <img src=""images/map05_plasma_scaleDef_orientDef_000.png"" style= ""width:200px""alt=""img"">
                            </div>
                        </div>",0.275,"",0,"",NA,"","images/map05_plasma_scaleDef_orientDef_000.png","happy",1,5,5,"plasma","orientDef","scaleDef","000",NA,NA
"","","","","","html-slider-response",76,399635,"0.0-72.0","0s7moyqf2e",6,NA,"<div style=""width:500px;"">
                            <p style=""font-size:50px; font-weight:bold;""
                            >happy</p>
                            <div style=""width:240px; margin: auto;"">
                                <img src=""images/map23_PuOr_scaleRev_orientDef_270.png"" style= ""width:200px""alt=""img"">
                            </div>
                        </div>",0,"",0,"",NA,"","images/map23_PuOr_scaleRev_orientDef_270.png","happy",1,23,23,"PuOr","orientDef","scaleRev","270",NA,NA
"","","","","","html-slider-response",77,402121,"0.0-73.0","0s7moyqf2e",6,NA,"<div style=""width:500px;"">
                            <p style=""font-size:50px; font-weight:bold;""
                            >happy</p>
                            <div style=""width:240px; margin: auto;"">
                                <img src=""images/map27_managua_scaleDef_orientMir_180.png"" style= ""width:200px""alt=""img"">
                            </div>
                        </div>",0.405,"",0,"",NA,"","images/map27_managua_scaleDef_orientMir_180.png","happy",1,27,27,"managua","orientMir","scaleDef","180",NA,NA
"","","","","","html-slider-response",78,404434,"0.0-74.0","0s7moyqf2e",6,NA,"<div style=""width:500px;"">
                            <p style=""font-size:50px; font-weight:bold;""
                            >happy</p>
                            <div style=""width:240px; margin: auto;"">
                                <img src=""images/map02_gist_earth_scaleRev_orientDef_270.png"" style= ""width:200px""alt=""img"">
                            </div>
                        </div>",0,"",0,"",NA,"","images/map02_gist_earth_scaleRev_orientDef_270.png","happy",1,2,2,"gist","scaleRev","earth","orientDef",NA,NA
"","","","","","html-slider-response",79,406843,"0.0-75.0","0s7moyqf2e",6,NA,"<div style=""width:500px;"">
                            <p style=""font-size:50px; font-weight:bold;""
                            >happy</p>
                            <div style=""width:240px; margin: auto;"">
                                <img src=""images/map12_OrRd_scaleDef_orientDef_000.png"" style= ""width:200px""alt=""img"">
                            </div>
                        </div>",0.0075,"",0,"",NA,"","images/map12_OrRd_scaleDef_orientDef_000.png","happy",1,12,12,"OrRd","orientDef","scaleDef","000",NA,NA
"","","","","","html-slider-response",80,410835,"0.0-76.0","0s7moyqf2e",6,NA,"<div style=""width:500px;"">
                            <p style=""font-size:50px; font-weight:bold;""
                            >happy</p>
                            <div style=""width:240px; margin: auto;"">
                                <img src=""images/map07_Greys_scaleDef_orientDef_000.png"" style= ""width:200px""alt=""img"">
                            </div>
                        </div>",0.4475,"",0,"",NA,"","images/map07_Greys_scaleDef_orientDef_000.png","happy",1,7,7,"Greys","orientDef","scaleDef","000",NA,NA
"","","","","","html-slider-response",81,413126,"0.0-77.0","0s7moyqf2e",6,NA,"<div style=""width:500px;"">
                            <p style=""font-size:50px; font-weight:bold;""
                            >happy</p>
                            <div style=""width:240px; margin: auto;"">
                                <img src=""images/map12_OrRd_scaleRev_orientDef_090.png"" style= ""width:200px""alt=""img"">
                            </div>
                        </div>",0,"",0,"",NA,"","images/map12_OrRd_scaleRev_orientDef_090.png","happy",1,12,12,"OrRd","orientDef","scaleRev","090",NA,NA
"","","","","","html-slider-response",82,415985,"0.0-78.0","0s7moyqf2e",6,NA,"<div style=""width:500px;"">
                            <p style=""font-size:50px; font-weight:bold;""
                            >happy</p>
                            <div style=""width:240px; margin: auto;"">
                                <img src=""images/map15_YlGn_scaleRev_orientDef_270.png"" style= ""width:200px""alt=""img"">
                            </div>
                        </div>",0.415,"",0,"",NA,"","images/map15_YlGn_scaleRev_orientDef_270.png","happy",1,15,15,"YlGn","orientDef","scaleRev","270",NA,NA
"","","","","","html-slider-response",83,419020,"0.0-79.0","0s7moyqf2e",6,NA,"<div style=""width:500px;"">
                            <p style=""font-size:50px; font-weight:bold;""
                            >happy</p>
                            <div style=""width:240px; margin: auto;"">
                                <img src=""images/map07_Greys_scaleRev_orientDef_090.png"" style= ""width:200px""alt=""img"">
                            </div>
                        </div>",0.325,"",0,"",NA,"","images/map07_Greys_scaleRev_orientDef_090.png","happy",1,7,7,"Greys","orientDef","scaleRev","090",NA,NA
"","","","","","html-slider-response",84,422556,"0.0-80.0","0s7moyqf2e",6,NA,"<div style=""width:500px;"">
                            <p style=""font-size:50px; font-weight:bold;""
                            >happy</p>
                            <div style=""width:240px; margin: auto;"">
                                <img src=""images/map10_YlOrBr_scaleRev_orientMir_090.png"" style= ""width:200px""alt=""img"">
                            </div>
                        </div>",0.75,"",0,"",NA,"","images/map10_YlOrBr_scaleRev_orientMir_090.png","happy",1,10,10,"YlOrBr","orientMir","scaleRev","090",NA,NA
"","","","","","html-slider-response",85,425124,"0.0-81.0","0s7moyqf2e",6,NA,"<div style=""width:500px;"">
                            <p style=""font-size:50px; font-weight:bold;""
                            >happy</p>
                            <div style=""width:240px; margin: auto;"">
                                <img src=""images/map10_Reds_scaleDef_orientDef_180.png"" style= ""width:200px""alt=""img"">
                            </div>
                        </div>",0,"",0,"",NA,"","images/map10_Reds_scaleDef_orientDef_180.png","happy",1,10,10,"Reds","orientDef","scaleDef","180",NA,NA
"","","","","","html-slider-response",86,427845,"0.0-82.0","0s7moyqf2e",6,NA,"<div style=""width:500px;"">
                            <p style=""font-size:50px; font-weight:bold;""
                            >happy</p>
                            <div style=""width:240px; margin: auto;"">
                                <img src=""images/map02_viridis_scaleRev_orientMir_270.png"" style= ""width:200px""alt=""img"">
                            </div>
                        </div>",0.4475,"",0,"",NA,"","images/map02_viridis_scaleRev_orientMir_270.png","happy",1,2,2,"viridis","orientMir","scaleRev","270",NA,NA
"","","","","","html-slider-response",87,431066,"0.0-83.0","0s7moyqf2e",6,NA,"<div style=""width:500px;"">
                            <p style=""font-size:50px; font-weight:bold;""
                            >happy</p>
                            <div style=""width:240px; margin: auto;"">
                                <img src=""images/map23_RdGy_scaleRev_orientMir_090.png"" style= ""width:200px""alt=""img"">
                            </div>
                        </div>",0,"",0,"",NA,"","images/map23_RdGy_scaleRev_orientMir_090.png","happy",1,23,23,"RdGy","orientMir","scaleRev","090",NA,NA
"","","","","","html-slider-response",88,434352,"0.0-84.0","0s7moyqf2e",6,NA,"<div style=""width:500px;"">
                            <p style=""font-size:50px; font-weight:bold;""
                            >happy</p>
                            <div style=""width:240px; margin: auto;"">
                                <img src=""images/map27_seismic_scaleRev_orientDef_270.png"" style= ""width:200px""alt=""img"">
                            </div>
                        </div>",0,"",0,"",NA,"","images/map27_seismic_scaleRev_orientDef_270.png","happy",1,27,27,"seismic","orientDef","scaleRev","270",NA,NA
"","","","","","html-slider-response",89,437233,"0.0-85.0","0s7moyqf2e",6,NA,"<div style=""width:500px;"">
                            <p style=""font-size:50px; font-weight:bold;""
                            >happy</p>
                            <div style=""width:240px; margin: auto;"">
                                <img src=""images/map27_bwr_scaleRev_orientDef_090.png"" style= ""width:200px""alt=""img"">
                            </div>
                        </div>",0.04,"",0,"",NA,"","images/map27_bwr_scaleRev_orientDef_090.png","happy",1,27,27,"bwr","orientDef","scaleRev","090",NA,NA
"","","","","","html-slider-response",90,440016,"0.0-86.0","0s7moyqf2e",6,NA,"<div style=""width:500px;"">
                            <p style=""font-size:50px; font-weight:bold;""
                            >happy</p>
                            <div style=""width:240px; margin: auto;"">
                                <img src=""images/map02_turbo_scaleRev_orientMir_090.png"" style= ""width:200px""alt=""img"">
                            </div>
                        </div>",0,"",0,"",NA,"","images/map02_turbo_scaleRev_orientMir_090.png","happy",1,2,2,"turbo","orientMir","scaleRev","090",NA,NA
"","","","","","html-slider-response",91,443305,"0.0-87.0","0s7moyqf2e",6,NA,"<div style=""width:500px;"">
                            <p style=""font-size:50px; font-weight:bold;""
                            >happy</p>
                            <div style=""width:240px; margin: auto;"">
                                <img src=""images/map02_viridis_scaleDef_orientMir_180.png"" style= ""width:200px""alt=""img"">
                            </div>
                        </div>",0.575,"",0,"",NA,"","images/map02_viridis_scaleDef_orientMir_180.png","happy",1,2,2,"viridis","orientMir","scaleDef","180",NA,NA
"","","","","","html-slider-response",92,455498,"0.0-88.0","0s7moyqf2e",6,NA,"<div style=""width:500px;"">
                            <p style=""font-size:50px; font-weight:bold;""
                            >happy</p>
                            <div style=""width:240px; margin: auto;"">
                                <img src=""images/map07_Greens_scaleDef_orientMir_180.png"" style= ""width:200px""alt=""img"">
                            </div>
                        </div>",0.58,"",0,"",NA,"","images/map07_Greens_scaleDef_orientMir_180.png","happy",1,7,7,"Greens","orientMir","scaleDef","180",NA,NA
"","","","","","html-slider-response",93,459188,"0.0-89.0","0s7moyqf2e",6,NA,"<div style=""width:500px;"">
                            <p style=""font-size:50px; font-weight:bold;""
                            >happy</p>
                            <div style=""width:240px; margin: auto;"">
                                <img src=""images/map10_YlOrBr_scaleDef_orientMir_000.png"" style= ""width:200px""alt=""img"">
                            </div>
                        </div>",1,"",0,"",NA,"","images/map10_YlOrBr_scaleDef_orientMir_000.png","happy",1,10,10,"YlOrBr","orientMir","scaleDef","000",NA,NA
"","","","","","html-slider-response",94,461599,"0.0-90.0","0s7moyqf2e",6,NA,"<div style=""width:500px;"">
                            <p style=""font-size:50px; font-weight:bold;""
                            >happy</p>
                            <div style=""width:240px; margin: auto;"">
                                <img src=""images/map13_PuBuGn_scaleDef_orientMir_180.png"" style= ""width:200px""alt=""img"">
                            </div>
                        </div>",0.5775,"",0,"",NA,"","images/map13_PuBuGn_scaleDef_orientMir_180.png","happy",1,13,13,"PuBuGn","orientMir","scaleDef","180",NA,NA
"","","","","","html-slider-response",95,463931,"0.0-91.0","0s7moyqf2e",6,NA,"<div style=""width:500px;"">
                            <p style=""font-size:50px; font-weight:bold;""
                            >happy</p>
                            <div style=""width:240px; margin: auto;"">
                                <img src=""images/map10_Oranges_scaleDef_orientDef_000.png"" style= ""width:200px""alt=""img"">
                            </div>
                        </div>",1,"",0,"",NA,"","images/map10_Oranges_scaleDef_orientDef_000.png","happy",1,10,10,"Oranges","orientDef","scaleDef","000",NA,NA
"","","","","","html-slider-response",96,466497,"0.0-92.0","0s7moyqf2e",6,NA,"<div style=""width:500px;"">
                            <p style=""font-size:50px; font-weight:bold;""
                            >happy</p>
                            <div style=""width:240px; margin: auto;"">
                                <img src=""images/map15_BuGn_scaleRev_orientDef_090.png"" style= ""width:200px""alt=""img"">
                            </div>
                        </div>",0.445,"",0,"",NA,"","images/map15_BuGn_scaleRev_orientDef_090.png","happy",1,15,15,"BuGn","orientDef","scaleRev","090",NA,NA
"","","","","","html-slider-response",97,468815,"0.0-93.0","0s7moyqf2e",6,NA,"<div style=""width:500px;"">
                            <p style=""font-size:50px; font-weight:bold;""
                            >happy</p>
                            <div style=""width:240px; margin: auto;"">
                                <img src=""images/map23_RdBu_scaleDef_orientMir_180.png"" style= ""width:200px""alt=""img"">
                            </div>
                        </div>",0,"",0,"",NA,"","images/map23_RdBu_scaleDef_orientMir_180.png","happy",1,23,23,"RdBu","orientMir","scaleDef","180",NA,NA
"","","","","","html-slider-response",98,471798,"0.0-94.0","0s7moyqf2e",6,NA,"<div style=""width:500px;"">
                            <p style=""font-size:50px; font-weight:bold;""
                            >happy</p>
                            <div style=""width:240px; margin: auto;"">
                                <img src=""images/map10_Oranges_scaleRev_orientDef_090.png"" style= ""width:200px""alt=""img"">
                            </div>
                        </div>",1,"",0,"",NA,"","images/map10_Oranges_scaleRev_orientDef_090.png","happy",1,10,10,"Oranges","orientDef","scaleRev","090",NA,NA
"","","","","","html-button-response",99,475961,"0.0-95.0","0s7moyqf2e",6,3661,"<p>Great Job! You've finished block 1.<br></br> You have 4 block(s) left to go.<br></br></p>",0.5,"",NA,"",NA,"","","",NA,NA,NA,"","","","",NA,NA
"","","","","","html-button-response",100,478648,"0.0-96.0","0s7moyqf2e",6,2685,"<p>In this block of trials, you will be asked to rate how much you associate each map with:</p > <p style = 'font-size:150%; font-weight: bold'>fearful</p><br></br>",0.5,"",NA,"",NA,"","","",NA,NA,NA,"","","","",NA,NA
"","","","","","html-slider-response",101,482421,"0.0-97.0","0s7moyqf2e",6,NA,"<div style=""width:500px;"">
                            <p style=""font-size:50px; font-weight:bold;""
                            >fearful</p>
                            <div style=""width:240px; margin: auto;"">
                                <img src=""images/map26_Spectral_scaleRev_orientMir_090.png"" style= ""width:200px""alt=""img"">
                            </div>
                        </div>",1,"",0,"",NA,"","images/map26_Spectral_scaleRev_orientMir_090.png","fearful",1,26,26,"Spectral","orientMir","scaleRev","090",NA,NA
"","","","","","html-slider-response",102,484981,"0.0-98.0","0s7moyqf2e",6,NA,"<div style=""width:500px;"">
                            <p style=""font-size:50px; font-weight:bold;""
                            >fearful</p>
                            <div style=""width:240px; margin: auto;"">
                                <img src=""images/map15_PRGn_scaleDef_orientMir_180.png"" style= ""width:200px""alt=""img"">
                            </div>
                        </div>",1,"",0,"",NA,"","images/map15_PRGn_scaleDef_orientMir_180.png","fearful",1,15,15,"PRGn","orientMir","scaleDef","180",NA,NA
"","","","","","html-slider-response",103,487997,"0.0-99.0","0s7moyqf2e",6,NA,"<div style=""width:500px;"">
                            <p style=""font-size:50px; font-weight:bold;""
                            >fearful</p>
                            <div style=""width:240px; margin: auto;"">
                                <img src=""images/map07_Greens_scaleDef_orientMir_180.png"" style= ""width:200px""alt=""img"">
                            </div>
                        </div>",0,"",0,"",NA,"","images/map07_Greens_scaleDef_orientMir_180.png","fearful",1,7,7,"Greens","orientMir","scaleDef","180",NA,NA
"","","","","","html-slider-response",104,490929,"0.0-100.0","0s7moyqf2e",6,NA,"<div style=""width:500px;"">
                            <p style=""font-size:50px; font-weight:bold;""
                            >fearful</p>
                            <div style=""width:240px; margin: auto;"">
                                <img src=""images/map02_gist_earth_scaleRev_orientDef_270.png"" style= ""width:200px""alt=""img"">
                            </div>
                        </div>",1,"",0,"",NA,"","images/map02_gist_earth_scaleRev_orientDef_270.png","fearful",1,2,2,"gist","scaleRev","earth","orientDef",NA,NA
"","","","","","html-slider-response",105,493436,"0.0-101.0","0s7moyqf2e",6,NA,"<div style=""width:500px;"">
                            <p style=""font-size:50px; font-weight:bold;""
                            >fearful</p>
                            <div style=""width:240px; margin: auto;"">
                                <img src=""images/map05_plasma_scaleDef_orientDef_000.png"" style= ""width:200px""alt=""img"">
                            </div>
                        </div>",0,"",0,"",NA,"","images/map05_plasma_scaleDef_orientDef_000.png","fearful",1,5,5,"plasma","orientDef","scaleDef","000",NA,NA
"","","","","","html-slider-response",106,496132,"0.0-102.0","0s7moyqf2e",6,NA,"<div style=""width:500px;"">
                            <p style=""font-size:50px; font-weight:bold;""
                            >fearful</p>
                            <div style=""width:240px; margin: auto;"">
                                <img src=""images/map27_seismic_scaleDef_orientDef_180.png"" style= ""width:200px""alt=""img"">
                            </div>
                        </div>",1,"",0,"",NA,"","images/map27_seismic_scaleDef_orientDef_180.png","fearful",1,27,27,"seismic","orientDef","scaleDef","180",NA,NA
"","","","","","html-slider-response",107,497932,"0.0-103.0","0s7moyqf2e",6,NA,"<div style=""width:500px;"">
                            <p style=""font-size:50px; font-weight:bold;""
                            >fearful</p>
                            <div style=""width:240px; margin: auto;"">
                                <img src=""images/map02_turbo_scaleRev_orientMir_090.png"" style= ""width:200px""alt=""img"">
                            </div>
                        </div>",0.5175,"",0,"",NA,"","images/map02_turbo_scaleRev_orientMir_090.png","fearful",1,2,2,"turbo","orientMir","scaleRev","090",NA,NA
"","","","","","html-slider-response",108,500324,"0.0-104.0","0s7moyqf2e",6,NA,"<div style=""width:500px;"">
                            <p style=""font-size:50px; font-weight:bold;""
                            >fearful</p>
                            <div style=""width:240px; margin: auto;"">
                                <img src=""images/map02_viridis_scaleDef_orientMir_180.png"" style= ""width:200px""alt=""img"">
                            </div>
                        </div>",0.02,"",0,"",NA,"","images/map02_viridis_scaleDef_orientMir_180.png","fearful",1,2,2,"viridis","orientMir","scaleDef","180",NA,NA
"","","","","","html-slider-response",109,502732,"0.0-105.0","0s7moyqf2e",6,NA,"<div style=""width:500px;"">
                            <p style=""font-size:50px; font-weight:bold;""
                            >fearful</p>
                            <div style=""width:240px; margin: auto;"">
                                <img src=""images/map15_BuGn_scaleDef_orientDef_000.png"" style= ""width:200px""alt=""img"">
                            </div>
                        </div>",0.085,"",0,"",NA,"","images/map15_BuGn_scaleDef_orientDef_000.png","fearful",1,15,15,"BuGn","orientDef","scaleDef","000",NA,NA
"","","","","","html-slider-response",110,505345,"0.0-106.0","0s7moyqf2e",6,NA,"<div style=""width:500px;"">
                            <p style=""font-size:50px; font-weight:bold;""
                            >fearful</p>
                            <div style=""width:240px; margin: auto;"">
                                <img src=""images/map15_PiYG_scaleRev_orientMir_090.png"" style= ""width:200px""alt=""img"">
                            </div>
                        </div>",1,"",0,"",NA,"","images/map15_PiYG_scaleRev_orientMir_090.png","fearful",1,15,15,"PiYG","orientMir","scaleRev","090",NA,NA
"","","","","","html-slider-response",111,508078,"0.0-107.0","0s7moyqf2e",6,NA,"<div style=""width:500px;"">
                            <p style=""font-size:50px; font-weight:bold;""
                            >fearful</p>
                            <div style=""width:240px; margin: auto;"">
                                <img src=""images/map05_magma_scaleRev_orientMir_090.png"" style= ""width:200px""alt=""img"">
                            </div>
                        </div>",0.2775,"",0,"",NA,"","images/map05_magma_scaleRev_orientMir_090.png","fearful",1,5,5,"magma","orientMir","scaleRev","090",NA,NA
"","","","","","html-slider-response",112,510361,"0.0-108.0","0s7moyqf2e",6,NA,"<div style=""width:500px;"">
                            <p style=""font-size:50px; font-weight:bold;""
                            >fearful</p>
                            <div style=""width:240px; margin: auto;"">
                                <img src=""images/map07_Greys_scaleRev_orientDef_090.png"" style= ""width:200px""alt=""img"">
                            </div>
                        </div>",0.265,"",0,"",NA,"","images/map07_Greys_scaleRev_orientDef_090.png","fearful",1,7,7,"Greys","orientDef","scaleRev","090",NA,NA
"","","","","","html-slider-response",113,512217,"0.0-109.0","0s7moyqf2e",6,NA,"<div style=""width:500px;"">
                            <p style=""font-size:50px; font-weight:bold;""
                            >fearful</p>
                            <div style=""width:240px; margin: auto;"">
                                <img src=""images/map02_viridis_scaleRev_orientMir_270.png"" style= ""width:200px""alt=""img"">
                            </div>
                        </div>",0.3125,"",0,"",NA,"","images/map02_viridis_scaleRev_orientMir_270.png","fearful",1,2,2,"viridis","orientMir","scaleRev","270",NA,NA
"","","","","","html-slider-response",114,514541,"0.0-110.0","0s7moyqf2e",6,NA,"<div style=""width:500px;"">
                            <p style=""font-size:50px; font-weight:bold;""
                            >fearful</p>
                            <div style=""width:240px; margin: auto;"">
                                <img src=""images/map10_Reds_scaleRev_orientDef_270.png"" style= ""width:200px""alt=""img"">
                            </div>
                        </div>",0.235,"",0,"",NA,"","images/map10_Reds_scaleRev_orientDef_270.png","fearful",1,10,10,"Reds","orientDef","scaleRev","270",NA,NA
"","","","","","html-slider-response",115,518302,"0.0-111.0","0s7moyqf2e",6,NA,"<div style=""width:500px;"">
                            <p style=""font-size:50px; font-weight:bold;""
                            >fearful</p>
                            <div style=""width:240px; margin: auto;"">
                                <img src=""images/map26_coolwarm_scaleRev_orientMir_270.png"" style= ""width:200px""alt=""img"">
                            </div>
                        </div>",1,"",0,"",NA,"","images/map26_coolwarm_scaleRev_orientMir_270.png","fearful",1,26,26,"coolwarm","orientMir","scaleRev","270",NA,NA
"","","","","","html-slider-response",116,521028,"0.0-112.0","0s7moyqf2e",6,NA,"<div style=""width:500px;"">
                            <p style=""font-size:50px; font-weight:bold;""
                            >fearful</p>
                            <div style=""width:240px; margin: auto;"">
                                <img src=""images/map02_vanimo_scaleRev_orientDef_090.png"" style= ""width:200px""alt=""img"">
                            </div>
                        </div>",1,"",0,"",NA,"","images/map02_vanimo_scaleRev_orientDef_090.png","fearful",1,2,2,"vanimo","orientDef","scaleRev","090",NA,NA
"","","","","","html-slider-response",117,525062,"0.0-113.0","0s7moyqf2e",6,NA,"<div style=""width:500px;"">
                            <p style=""font-size:50px; font-weight:bold;""
                            >fearful</p>
                            <div style=""width:240px; margin: auto;"">
                                <img src=""images/map10_Oranges_scaleDef_orientDef_000.png"" style= ""width:200px""alt=""img"">
                            </div>
                        </div>",0.765,"",0,"",NA,"","images/map10_Oranges_scaleDef_orientDef_000.png","fearful",1,10,10,"Oranges","orientDef","scaleDef","000",NA,NA
"","","","","","html-slider-response",118,527500,"0.0-114.0","0s7moyqf2e",6,NA,"<div style=""width:500px;"">
                            <p style=""font-size:50px; font-weight:bold;""
                            >fearful</p>
                            <div style=""width:240px; margin: auto;"">
                                <img src=""images/map15_YlGn_scaleRev_orientDef_270.png"" style= ""width:200px""alt=""img"">
                            </div>
                        </div>",0,"",0,"",NA,"","images/map15_YlGn_scaleRev_orientDef_270.png","fearful",1,15,15,"YlGn","orientDef","scaleRev","270",NA,NA
"","","","","","html-slider-response",119,529632,"0.0-115.0","0s7moyqf2e",6,NA,"<div style=""width:500px;"">
                            <p style=""font-size:50px; font-weight:bold;""
                            >fearful</p>
                            <div style=""width:240px; margin: auto;"">
                                <img src=""images/map15_PRGn_scaleRev_orientMir_270.png"" style= ""width:200px""alt=""img"">
                            </div>
                        </div>",1,"",0,"",NA,"","images/map15_PRGn_scaleRev_orientMir_270.png","fearful",1,15,15,"PRGn","orientMir","scaleRev","270",NA,NA
"","","","","","html-slider-response",120,532804,"0.0-116.0","0s7moyqf2e",6,NA,"<div style=""width:500px;"">
                            <p style=""font-size:50px; font-weight:bold;""
                            >fearful</p>
                            <div style=""width:240px; margin: auto;"">
                                <img src=""images/map05_plasma_scaleRev_orientDef_090.png"" style= ""width:200px""alt=""img"">
                            </div>
                        </div>",0.0075,"",0,"",NA,"","images/map05_plasma_scaleRev_orientDef_090.png","fearful",1,5,5,"plasma","orientDef","scaleRev","090",NA,NA
"","","","","","html-slider-response",121,535796,"0.0-117.0","0s7moyqf2e",6,NA,"<div style=""width:500px;"">
                            <p style=""font-size:50px; font-weight:bold;""
                            >fearful</p>
                            <div style=""width:240px; margin: auto;"">
                                <img src=""images/map12_RdPu_scaleDef_orientMir_000.png"" style= ""width:200px""alt=""img"">
                            </div>
                        </div>",0,"",0,"",NA,"","images/map12_RdPu_scaleDef_orientMir_000.png","fearful",1,12,12,"RdPu","orientMir","scaleDef","000",NA,NA
"","","","","","html-slider-response",122,539295,"0.0-118.0","0s7moyqf2e",6,NA,"<div style=""width:500px;"">
                            <p style=""font-size:50px; font-weight:bold;""
                            >fearful</p>
                            <div style=""width:240px; margin: auto;"">
                                <img src=""images/map12_OrRd_scaleDef_orientDef_000.png"" style= ""width:200px""alt=""img"">
                            </div>
                        </div>",1,"",0,"",NA,"","images/map12_OrRd_scaleDef_orientDef_000.png","fearful",1,12,12,"OrRd","orientDef","scaleDef","000",NA,NA
"","","","","","html-slider-response",123,542169,"0.0-119.0","0s7moyqf2e",6,NA,"<div style=""width:500px;"">
                            <p style=""font-size:50px; font-weight:bold;""
                            >fearful</p>
                            <div style=""width:240px; margin: auto;"">
                                <img src=""images/map07_Greys_scaleDef_orientDef_000.png"" style= ""width:200px""alt=""img"">
                            </div>
                        </div>",0,"",0,"",NA,"","images/map07_Greys_scaleDef_orientDef_000.png","fearful",1,7,7,"Greys","orientDef","scaleDef","000",NA,NA
"","","","","","html-slider-response",124,544400,"0.0-120.0","0s7moyqf2e",6,NA,"<div style=""width:500px;"">
                            <p style=""font-size:50px; font-weight:bold;""
                            >fearful</p>
                            <div style=""width:240px; margin: auto;"">
                                <img src=""images/map12_OrRd_scaleRev_orientDef_090.png"" style= ""width:200px""alt=""img"">
                            </div>
                        </div>",1,"",0,"",NA,"","images/map12_OrRd_scaleRev_orientDef_090.png","fearful",1,12,12,"OrRd","orientDef","scaleRev","090",NA,NA
"","","","","","html-slider-response",125,546893,"0.0-121.0","0s7moyqf2e",6,NA,"<div style=""width:500px;"">
                            <p style=""font-size:50px; font-weight:bold;""
                            >fearful</p>
                            <div style=""width:240px; margin: auto;"">
                                <img src=""images/map05_magma_scaleDef_orientMir_000.png"" style= ""width:200px""alt=""img"">
                            </div>
                        </div>",0,"",0,"",NA,"","images/map05_magma_scaleDef_orientMir_000.png","fearful",1,5,5,"magma","orientMir","scaleDef","000",NA,NA
"","","","","","html-slider-response",126,550032,"0.0-122.0","0s7moyqf2e",6,NA,"<div style=""width:500px;"">
                            <p style=""font-size:50px; font-weight:bold;""
                            >fearful</p>
                            <div style=""width:240px; margin: auto;"">
                                <img src=""images/map27_seismic_scaleRev_orientDef_270.png"" style= ""width:200px""alt=""img"">
                            </div>
                        </div>",1,"",0,"",NA,"","images/map27_seismic_scaleRev_orientDef_270.png","fearful",1,27,27,"seismic","orientDef","scaleRev","270",NA,NA
"","","","","","html-slider-response",127,552660,"0.0-123.0","0s7moyqf2e",6,NA,"<div style=""width:500px;"">
                            <p style=""font-size:50px; font-weight:bold;""
                            >fearful</p>
                            <div style=""width:240px; margin: auto;"">
                                <img src=""images/map26_RdYlBu_scaleDef_orientDef_000.png"" style= ""width:200px""alt=""img"">
                            </div>
                        </div>",1,"",0,"",NA,"","images/map26_RdYlBu_scaleDef_orientDef_000.png","fearful",1,26,26,"RdYlBu","orientDef","scaleDef","000",NA,NA
"","","","","","html-slider-response",128,554786,"0.0-124.0","0s7moyqf2e",6,NA,"<div style=""width:500px;"">
                            <p style=""font-size:50px; font-weight:bold;""
                            >fearful</p>
                            <div style=""width:240px; margin: auto;"">
                                <img src=""images/map23_BrBG_scaleRev_orientDef_090.png"" style= ""width:200px""alt=""img"">
                            </div>
                        </div>",1,"",0,"",NA,"","images/map23_BrBG_scaleRev_orientDef_090.png","fearful",1,23,23,"BrBG","orientDef","scaleRev","090",NA,NA
"","","","","","html-slider-response",129,556978,"0.0-125.0","0s7moyqf2e",6,NA,"<div style=""width:500px;"">
                            <p style=""font-size:50px; font-weight:bold;""
                            >fearful</p>
                            <div style=""width:240px; margin: auto;"">
                                <img src=""images/map05_cividis_scaleRev_orientMir_270.png"" style= ""width:200px""alt=""img"">
                            </div>
                        </div>",0,"",0,"",NA,"","images/map05_cividis_scaleRev_orientMir_270.png","fearful",1,5,5,"cividis","orientMir","scaleRev","270",NA,NA
"","","","","","html-slider-response",130,559109,"0.0-126.0","0s7moyqf2e",6,NA,"<div style=""width:500px;"">
                            <p style=""font-size:50px; font-weight:bold;""
                            >fearful</p>
                            <div style=""width:240px; margin: auto;"">
                                <img src=""images/map23_PuOr_scaleRev_orientDef_270.png"" style= ""width:200px""alt=""img"">
                            </div>
                        </div>",1,"",0,"",NA,"","images/map23_PuOr_scaleRev_orientDef_270.png","fearful",1,23,23,"PuOr","orientDef","scaleRev","270",NA,NA
"","","","","","html-slider-response",131,561258,"0.0-127.0","0s7moyqf2e",6,NA,"<div style=""width:500px;"">
                            <p style=""font-size:50px; font-weight:bold;""
                            >fearful</p>
                            <div style=""width:240px; margin: auto;"">
                                <img src=""images/map13_PuBuGn_scaleRev_orientMir_270.png"" style= ""width:200px""alt=""img"">
                            </div>
                        </div>",0,"",0,"",NA,"","images/map13_PuBuGn_scaleRev_orientMir_270.png","fearful",1,13,13,"PuBuGn","orientMir","scaleRev","270",NA,NA
"","","","","","html-slider-response",132,563530,"0.0-128.0","0s7moyqf2e",6,NA,"<div style=""width:500px;"">
                            <p style=""font-size:50px; font-weight:bold;""
                            >fearful</p>
                            <div style=""width:240px; margin: auto;"">
                                <img src=""images/map27_berlin_scaleRev_orientMir_090.png"" style= ""width:200px""alt=""img"">
                            </div>
                        </div>",1,"",0,"",NA,"","images/map27_berlin_scaleRev_orientMir_090.png","fearful",1,27,27,"berlin","orientMir","scaleRev","090",NA,NA
"","","","","","html-slider-response",133,565841,"0.0-129.0","0s7moyqf2e",6,NA,"<div style=""width:500px;"">
                            <p style=""font-size:50px; font-weight:bold;""
                            >fearful</p>
                            <div style=""width:240px; margin: auto;"">
                                <img src=""images/map23_BrBG_scaleDef_orientDef_000.png"" style= ""width:200px""alt=""img"">
                            </div>
                        </div>",1,"",0,"",NA,"","images/map23_BrBG_scaleDef_orientDef_000.png","fearful",1,23,23,"BrBG","orientDef","scaleDef","000",NA,NA
"","","","","","html-slider-response",134,567988,"0.0-130.0","0s7moyqf2e",6,NA,"<div style=""width:500px;"">
                            <p style=""font-size:50px; font-weight:bold;""
                            >fearful</p>
                            <div style=""width:240px; margin: auto;"">
                                <img src=""images/map27_managua_scaleRev_orientMir_270.png"" style= ""width:200px""alt=""img"">
                            </div>
                        </div>",0.035,"",0,"",NA,"","images/map27_managua_scaleRev_orientMir_270.png","fearful",1,27,27,"managua","orientMir","scaleRev","270",NA,NA
"","","","","","html-slider-response",135,570435,"0.0-131.0","0s7moyqf2e",6,NA,"<div style=""width:500px;"">
                            <p style=""font-size:50px; font-weight:bold;""
                            >fearful</p>
                            <div style=""width:240px; margin: auto;"">
                                <img src=""images/map27_bwr_scaleDef_orientDef_000.png"" style= ""width:200px""alt=""img"">
                            </div>
                        </div>",0.995,"",0,"",NA,"","images/map27_bwr_scaleDef_orientDef_000.png","fearful",1,27,27,"bwr","orientDef","scaleDef","000",NA,NA
"","","","","","html-slider-response",136,572709,"0.0-132.0","0s7moyqf2e",6,NA,"<div style=""width:500px;"">
                            <p style=""font-size:50px; font-weight:bold;""
                            >fearful</p>
                            <div style=""width:240px; margin: auto;"">
                                <img src=""images/map10_Oranges_scaleRev_orientDef_090.png"" style= ""width:200px""alt=""img"">
                            </div>
                        </div>",0.8025,"",0,"",NA,"","images/map10_Oranges_scaleRev_orientDef_090.png","fearful",1,10,10,"Oranges","orientDef","scaleRev","090",NA,NA
"","","","","","html-slider-response",137,574804,"0.0-133.0","0s7moyqf2e",6,NA,"<div style=""width:500px;"">
                            <p style=""font-size:50px; font-weight:bold;""
                            >fearful</p>
                            <div style=""width:240px; margin: auto;"">
                                <img src=""images/map26_RdYlBu_scaleRev_orientDef_090.png"" style= ""width:200px""alt=""img"">
                            </div>
                        </div>",1,"",0,"",NA,"","images/map26_RdYlBu_scaleRev_orientDef_090.png","fearful",1,26,26,"RdYlBu","orientDef","scaleRev","090",NA,NA
"","","","","","html-slider-response",138,576994,"0.0-134.0","0s7moyqf2e",6,NA,"<div style=""width:500px;"">
                            <p style=""font-size:50px; font-weight:bold;""
                            >fearful</p>
                            <div style=""width:240px; margin: auto;"">
                                <img src=""images/map15_YlGn_scaleDef_orientDef_180.png"" style= ""width:200px""alt=""img"">
                            </div>
                        </div>",0.135,"",0,"",NA,"","images/map15_YlGn_scaleDef_orientDef_180.png","fearful",1,15,15,"YlGn","orientDef","scaleDef","180",NA,NA
"","","","","","html-slider-response",139,579218,"0.0-135.0","0s7moyqf2e",6,NA,"<div style=""width:500px;"">
                            <p style=""font-size:50px; font-weight:bold;""
                            >fearful</p>
                            <div style=""width:240px; margin: auto;"">
                                <img src=""images/map23_PuOr_scaleDef_orientDef_180.png"" style= ""width:200px""alt=""img"">
                            </div>
                        </div>",1,"",0,"",NA,"","images/map23_PuOr_scaleDef_orientDef_180.png","fearful",1,23,23,"PuOr","orientDef","scaleDef","180",NA,NA
"","","","","","html-slider-response",140,581531,"0.0-136.0","0s7moyqf2e",6,NA,"<div style=""width:500px;"">
                            <p style=""font-size:50px; font-weight:bold;""
                            >fearful</p>
                            <div style=""width:240px; margin: auto;"">
                                <img src=""images/map13_PuBu_scaleDef_orientDef_180.png"" style= ""width:200px""alt=""img"">
                            </div>
                        </div>",0,"",0,"",NA,"","images/map13_PuBu_scaleDef_orientDef_180.png","fearful",1,13,13,"PuBu","orientDef","scaleDef","180",NA,NA
"","","","","","html-button-response",141,585916,"0.0-137.0","0s7moyqf2e",6,3883,"<p>You are doing great!<br></br> You are halway done with the current block. When you are ready to continue, click the 'Continue' button.</p>",0.5,"",NA,"",NA,"","","",NA,NA,NA,"","","","",NA,NA
"","","","","","html-slider-response",142,588782,"0.0-138.0","0s7moyqf2e",6,NA,"<div style=""width:500px;"">
                            <p style=""font-size:50px; font-weight:bold;""
                            >fearful</p>
                            <div style=""width:240px; margin: auto;"">
                                <img src=""images/map23_RdBu_scaleDef_orientMir_180.png"" style= ""width:200px""alt=""img"">
                            </div>
                        </div>",1,"",0,"",NA,"","images/map23_RdBu_scaleDef_orientMir_180.png","fearful",1,23,23,"RdBu","orientMir","scaleDef","180",NA,NA
"","","","","","html-slider-response",143,591309,"0.0-139.0","0s7moyqf2e",6,NA,"<div style=""width:500px;"">
                            <p style=""font-size:50px; font-weight:bold;""
                            >fearful</p>
                            <div style=""width:240px; margin: auto;"">
                                <img src=""images/map23_RdGy_scaleDef_orientMir_000.png"" style= ""width:200px""alt=""img"">
                            </div>
                        </div>",1,"",0,"",NA,"","images/map23_RdGy_scaleDef_orientMir_000.png","fearful",1,23,23,"RdGy","orientMir","scaleDef","000",NA,NA
"","","","","","html-slider-response",144,597951,"0.0-140.0","0s7moyqf2e",6,NA,"<div style=""width:500px;"">
                            <p style=""font-size:50px; font-weight:bold;""
                            >fearful</p>
                            <div style=""width:240px; margin: auto;"">
                                <img src=""images/map10_YlOrBr_scaleRev_orientMir_090.png"" style= ""width:200px""alt=""img"">
                            </div>
                        </div>",0.5875,"",0,"",NA,"","images/map10_YlOrBr_scaleRev_orientMir_090.png","fearful",1,10,10,"YlOrBr","orientMir","scaleRev","090",NA,NA
"","","","","","html-slider-response",145,602051,"0.0-141.0","0s7moyqf2e",6,NA,"<div style=""width:500px;"">
                            <p style=""font-size:50px; font-weight:bold;""
                            >fearful</p>
                            <div style=""width:240px; margin: auto;"">
                                <img src=""images/map02_turbo_scaleDef_orientMir_000.png"" style= ""width:200px""alt=""img"">
                            </div>
                        </div>",1,"",0,"",NA,"","images/map02_turbo_scaleDef_orientMir_000.png","fearful",1,2,2,"turbo","orientMir","scaleDef","000",NA,NA
"","","","","","html-slider-response",146,604333,"0.0-142.0","0s7moyqf2e",6,NA,"<div style=""width:500px;"">
                            <p style=""font-size:50px; font-weight:bold;""
                            >fearful</p>
                            <div style=""width:240px; margin: auto;"">
                                <img src=""images/map13_GnBu_scaleDef_orientDef_000.png"" style= ""width:200px""alt=""img"">
                            </div>
                        </div>",0.1425,"",0,"",NA,"","images/map13_GnBu_scaleDef_orientDef_000.png","fearful",1,13,13,"GnBu","orientDef","scaleDef","000",NA,NA
"","","","","","html-slider-response",147,606525,"0.0-143.0","0s7moyqf2e",6,NA,"<div style=""width:500px;"">
                            <p style=""font-size:50px; font-weight:bold;""
                            >fearful</p>
                            <div style=""width:240px; margin: auto;"">
                                <img src=""images/map13_YlGnBu_scaleRev_orientMir_090.png"" style= ""width:200px""alt=""img"">
                            </div>
                        </div>",0,"",0,"",NA,"","images/map13_YlGnBu_scaleRev_orientMir_090.png","fearful",1,13,13,"YlGnBu","orientMir","scaleRev","090",NA,NA
"","","","","","html-slider-response",148,608740,"0.0-144.0","0s7moyqf2e",6,NA,"<div style=""width:500px;"">
                            <p style=""font-size:50px; font-weight:bold;""
                            >fearful</p>
                            <div style=""width:240px; margin: auto;"">
                                <img src=""images/map07_Greens_scaleRev_orientMir_270.png"" style= ""width:200px""alt=""img"">
                            </div>
                        </div>",0.0575,"",0,"",NA,"","images/map07_Greens_scaleRev_orientMir_270.png","fearful",1,7,7,"Greens","orientMir","scaleRev","270",NA,NA
"","","","","","html-slider-response",149,611723,"0.0-145.0","0s7moyqf2e",6,NA,"<div style=""width:500px;"">
                            <p style=""font-size:50px; font-weight:bold;""
                            >fearful</p>
                            <div style=""width:240px; margin: auto;"">
                                <img src=""images/map02_gist_earth_scaleDef_orientDef_180.png"" style= ""width:200px""alt=""img"">
                            </div>
                        </div>",0.2825,"",0,"",NA,"","images/map02_gist_earth_scaleDef_orientDef_180.png","fearful",1,2,2,"gist","scaleDef","earth","orientDef",NA,NA
"","","","","","html-slider-response",150,614024,"0.0-146.0","0s7moyqf2e",6,NA,"<div style=""width:500px;"">
                            <p style=""font-size:50px; font-weight:bold;""
                            >fearful</p>
                            <div style=""width:240px; margin: auto;"">
                                <img src=""images/map07_Purples_scaleRev_orientDef_270.png"" style= ""width:200px""alt=""img"">
                            </div>
                        </div>",0.175,"",0,"",NA,"","images/map07_Purples_scaleRev_orientDef_270.png","fearful",1,7,7,"Purples","orientDef","scaleRev","270",NA,NA
"","","","","","html-slider-response",151,616201,"0.0-147.0","0s7moyqf2e",6,NA,"<div style=""width:500px;"">
                            <p style=""font-size:50px; font-weight:bold;""
                            >fearful</p>
                            <div style=""width:240px; margin: auto;"">
                                <img src=""images/map10_YlOrRd_scaleRev_orientMir_270.png"" style= ""width:200px""alt=""img"">
                            </div>
                        </div>",1,"",0,"",NA,"","images/map10_YlOrRd_scaleRev_orientMir_270.png","fearful",1,10,10,"YlOrRd","orientMir","scaleRev","270",NA,NA
"","","","","","html-slider-response",152,618432,"0.0-148.0","0s7moyqf2e",6,NA,"<div style=""width:500px;"">
                            <p style=""font-size:50px; font-weight:bold;""
                            >fearful</p>
                            <div style=""width:240px; margin: auto;"">
                                <img src=""images/map07_Blues_scaleRev_orientMir_090.png"" style= ""width:200px""alt=""img"">
                            </div>
                        </div>",0,"",0,"",NA,"","images/map07_Blues_scaleRev_orientMir_090.png","fearful",1,7,7,"Blues","orientMir","scaleRev","090",NA,NA
"","","","","","html-slider-response",153,620156,"0.0-149.0","0s7moyqf2e",6,NA,"<div style=""width:500px;"">
                            <p style=""font-size:50px; font-weight:bold;""
                            >fearful</p>
                            <div style=""width:240px; margin: auto;"">
                                <img src=""images/map13_PuBuGn_scaleDef_orientMir_180.png"" style= ""width:200px""alt=""img"">
                            </div>
                        </div>",0.31,"",0,"",NA,"","images/map13_PuBuGn_scaleDef_orientMir_180.png","fearful",1,13,13,"PuBuGn","orientMir","scaleDef","180",NA,NA
"","","","","","html-slider-response",154,622680,"0.0-150.0","0s7moyqf2e",6,NA,"<div style=""width:500px;"">
                            <p style=""font-size:50px; font-weight:bold;""
                            >fearful</p>
                            <div style=""width:240px; margin: auto;"">
                                <img src=""images/map15_BuGn_scaleRev_orientDef_090.png"" style= ""width:200px""alt=""img"">
                            </div>
                        </div>",0.235,"",0,"",NA,"","images/map15_BuGn_scaleRev_orientDef_090.png","fearful",1,15,15,"BuGn","orientDef","scaleRev","090",NA,NA
"","","","","","html-slider-response",155,625494,"0.0-151.0","0s7moyqf2e",6,NA,"<div style=""width:500px;"">
                            <p style=""font-size:50px; font-weight:bold;""
                            >fearful</p>
                            <div style=""width:240px; margin: auto;"">
                                <img src=""images/map10_Reds_scaleDef_orientDef_180.png"" style= ""width:200px""alt=""img"">
                            </div>
                        </div>",0.935,"",0,"",NA,"","images/map10_Reds_scaleDef_orientDef_180.png","fearful",1,10,10,"Reds","orientDef","scaleDef","180",NA,NA
"","","","","","html-slider-response",156,628332,"0.0-152.0","0s7moyqf2e",6,NA,"<div style=""width:500px;"">
                            <p style=""font-size:50px; font-weight:bold;""
                            >fearful</p>
                            <div style=""width:240px; margin: auto;"">
                                <img src=""images/map23_RdGy_scaleRev_orientMir_090.png"" style= ""width:200px""alt=""img"">
                            </div>
                        </div>",1,"",0,"",NA,"","images/map23_RdGy_scaleRev_orientMir_090.png","fearful",1,23,23,"RdGy","orientMir","scaleRev","090",NA,NA
"","","","","","html-slider-response",157,630771,"0.0-153.0","0s7moyqf2e",6,NA,"<div style=""width:500px;"">
                            <p style=""font-size:50px; font-weight:bold;""
                            >fearful</p>
                            <div style=""width:240px; margin: auto;"">
                                <img src=""images/map27_bwr_scaleRev_orientDef_090.png"" style= ""width:200px""alt=""img"">
                            </div>
                        </div>",0.8925,"",0,"",NA,"","images/map27_bwr_scaleRev_orientDef_090.png","fearful",1,27,27,"bwr","orientDef","scaleRev","090",NA,NA
"","","","","","html-slider-response",158,633222,"0.0-154.0","0s7moyqf2e",6,NA,"<div style=""width:500px;"">
                            <p style=""font-size:50px; font-weight:bold;""
                            >fearful</p>
                            <div style=""width:240px; margin: auto;"">
                                <img src=""images/map26_Spectral_scaleDef_orientMir_000.png"" style= ""width:200px""alt=""img"">
                            </div>
                        </div>",1,"",0,"",NA,"","images/map26_Spectral_scaleDef_orientMir_000.png","fearful",1,26,26,"Spectral","orientMir","scaleDef","000",NA,NA
"","","","","","html-slider-response",159,635415,"0.0-155.0","0s7moyqf2e",6,NA,"<div style=""width:500px;"">
                            <p style=""font-size:50px; font-weight:bold;""
                            >fearful</p>
                            <div style=""width:240px; margin: auto;"">
                                <img src=""images/map23_RdBu_scaleRev_orientMir_270.png"" style= ""width:200px""alt=""img"">
                            </div>
                        </div>",1,"",0,"",NA,"","images/map23_RdBu_scaleRev_orientMir_270.png","fearful",1,23,23,"RdBu","orientMir","scaleRev","270",NA,NA
"","","","","","html-slider-response",160,637815,"0.0-156.0","0s7moyqf2e",6,NA,"<div style=""width:500px;"">
                            <p style=""font-size:50px; font-weight:bold;""
                            >fearful</p>
                            <div style=""width:240px; margin: auto;"">
                                <img src=""images/map12_BuPu_scaleDef_orientMir_180.png"" style= ""width:200px""alt=""img"">
                            </div>
                        </div>",0,"",0,"",NA,"","images/map12_BuPu_scaleDef_orientMir_180.png","fearful",1,12,12,"BuPu","orientMir","scaleDef","180",NA,NA
"","","","","","html-slider-response",161,640654,"0.0-157.0","0s7moyqf2e",6,NA,"<div style=""width:500px;"">
                            <p style=""font-size:50px; font-weight:bold;""
                            >fearful</p>
                            <div style=""width:240px; margin: auto;"">
                                <img src=""images/map26_RdYlGn_scaleRev_orientDef_270.png"" style= ""width:200px""alt=""img"">
                            </div>
                        </div>",1,"",0,"",NA,"","images/map26_RdYlGn_scaleRev_orientDef_270.png","fearful",1,26,26,"RdYlGn","orientDef","scaleRev","270",NA,NA
"","","","","","html-slider-response",162,642838,"0.0-158.0","0s7moyqf2e",6,NA,"<div style=""width:500px;"">
                            <p style=""font-size:50px; font-weight:bold;""
                            >fearful</p>
                            <div style=""width:240px; margin: auto;"">
                                <img src=""images/map13_PuBu_scaleRev_orientDef_270.png"" style= ""width:200px""alt=""img"">
                            </div>
                        </div>",0.035,"",0,"",NA,"","images/map13_PuBu_scaleRev_orientDef_270.png","fearful",1,13,13,"PuBu","orientDef","scaleRev","270",NA,NA
"","","","","","html-slider-response",163,645037,"0.0-159.0","0s7moyqf2e",6,NA,"<div style=""width:500px;"">
