"success","timeout","failed_images","failed_audio","failed_video","trial_type","trial_index","time_elapsed","internal_node_id","subject_id","condition_num","rt","stimulus","response","question_order","slider_start","practiceTrial","practiceTrialNum","correct","image_path","concept","repetition","map_id","map_num","scale_name","orientation_code","mapping_code","rotation_code","ishihara_plate","correct_response"
"true","false","[]","[]","[]","preload",0,394,"0.0-0.0","h12bc2ehmy",55,NA,"",NA,"",NA,"",NA,"","","",NA,NA,NA,"","","","",NA,NA
"","","","","","html-button-response",1,2091,"0.0-1.0","h12bc2ehmy",55,1695,"Welcome to our experiment!<p>At the bottom of this screen, you will see a button that says ""Begin Experiment"".<br>Please only click that button when you are ready to complete the 30 minute experiment in one sitting.</p><p> Once you click that button, it will not be possible to restart the experiment.",0.5,"",NA,"",NA,"","","",NA,NA,NA,"","","","",NA,NA
"true","","","","","fullscreen",2,4770,"0.0-2.0","h12bc2ehmy",55,1669,"",NA,"",NA,"",NA,"","","",NA,NA,NA,"","","","",NA,NA
"","","","","","survey-multi-select",3,7853,"0.0-3.0","h12bc2ehmy",55,3078,"",NA,"[0]",NA,"",NA,"","","",NA,NA,NA,"","","","",NA,NA
"","","","","","html-button-response",4,8969,"0.0-4.0","h12bc2ehmy",55,1115,"Welcome! <p> This experiment involves two parts: demographic information, followed by the experimental task.<p> It will take about 30 minutes to complete both parts.",0.5,"",NA,"",NA,"","","",NA,NA,NA,"","","","",NA,NA
"","","","","","survey-text",5,20772,"0.0-5.0","h12bc2ehmy",55,11800,"",NA,"",NA,"",NA,"","","",NA,NA,NA,"","","","",NA,NA
"","","","","","html-slider-response",6,22302,"0.0-6.0","h12bc2ehmy",55,1527,"<div style='text-align:left; font-size:20px; line-height:25px; width: 1000px;'>
                                During this experiment you will be asked to rate how much you associate maps with                    different concepts.<br> Below, you can see some examples of the maps you will be asked to rate. Above the maps
                    is the list of concepts.<br>You will be asked                    to rate how much you associate each map with each concept on a scale from 'not at all' to 'very much' like the
                    one below. <br><br>
                    Now, please look at the list of concepts and maps. For each concept, think about the map you associate 'very
                    much' with the concept.<br>                     When you see that map during the experiment, please rate it near the 'very much' endpoint of the
                    scale.<br>Now, please think about which map you associate 'not at all'                     with each concept. When you see that map during the experiment, please rate it near the 'not at all' endpoint
                    of the scale.<br>
                    Please use the full range of the scale. That is, if a map is somewhat associated with the concept, you would
                    click partway between the middle point and right side of the scale.                    You will be asked to rate each map for a given concept before moving on to the next concept.<br>Press the
                    'Continue' button for instructions on how to use the slider.                    <br>
                </div>

                <div style=""width: 500px; margin: 0 auto;"">
                    <!-- Centered text paragraphs -->
                    <div style=""text-align: center; width: 500px;"">
                        <p style=""font-size:25px; line-height:15px;"">
                            angry&nbsp;&nbsp;&nbsp;&nbsp;
                            disgust&nbsp;&nbsp;&nbsp;&nbsp;
                            happy&nbsp;&nbsp;&nbsp;&nbsp;
                            sad&nbsp;&nbsp;&nbsp;&nbsp;
                            fearful
                        </p>
                        <!-- <p style=""font-size:20px; line-height:15px;"">disgust</p>
                        <p style=""font-size:20px;line-height:15px;"">happy</p>
                        <p style=""font-size:20px;line-height:15px;"">sad</p>
                        <p style=""font-size:20px;line-height:15px;"">fearful</p> -->
                    </div>
            

                    <!-- Grid section -->
                   <div style=""display: flex; justify-content: center; padding-top: 15px;"">
                    <div style=""display: grid; grid-template-columns: repeat(10, 55px); grid-gap: 5px; width: auto;"">
                        <img src=""images/map15_vanimo_scaleRev_orientDef_180.png"" alt=""map"" style=""width: 100%;""><img src=""images/map07_PRGn_scaleDef_orientMir_270.png"" alt=""map"" style=""width: 100%;""><img src=""images/map15_viridis_scaleDef_orientMir_270.png"" alt=""map"" style=""width: 100%;""><img src=""images/map27_Oranges_scaleDef_orientDef_090.png"" alt=""map"" style=""width: 100%;""><img src=""images/map07_YlGn_scaleDef_orientDef_270.png"" alt=""map"" style=""width: 100%;""><img src=""images/map13_coolwarm_scaleRev_orientDef_000.png"" alt=""map"" style=""width: 100%;""><img src=""images/map07_PiYG_scaleDef_orientMir_090.png"" alt=""map"" style=""width: 100%;""><img src=""images/map05_PuBuGn_scaleDef_orientMir_270.png"" alt=""map"" style=""width: 100%;""><img src=""images/map26_Greys_scaleRev_orientDef_180.png"" alt=""map"" style=""width: 100%;""><img src=""images/map23_plasma_scaleDef_orientDef_090.png"" alt=""map"" style=""width: 100%;""><img src=""images/map27_YlOrBr_scaleDef_orientMir_090.png"" alt=""map"" style=""width: 100%;""><img src=""images/map12_RdYlGn_scaleRev_orientMir_000.png"" alt=""map"" style=""width: 100%;""><img src=""images/map12_RdYlBu_scaleDef_orientDef_090.png"" alt=""map"" style=""width: 100%;""><img src=""images/map05_YlGnBu_scaleDef_orientMir_090.png"" alt=""map"" style=""width: 100%;""><img src=""images/map13_bwr_scaleDef_orientDef_090.png"" alt=""map"" style=""width: 100%;""><img src=""images/map02_RdPu_scaleDef_orientMir_090.png"" alt=""map"" style=""width: 100%;""><img src=""images/map02_BuPu_scaleDef_orientMir_270.png"" alt=""map"" style=""width: 100%;""><img src=""images/map27_Reds_scaleDef_orientDef_270.png"" alt=""map"" style=""width: 100%;""><img src=""images/map10_PuOr_scaleDef_orientDef_270.png"" alt=""map"" style=""width: 100%;""><img src=""images/map05_PuBu_scaleRev_orientMir_000.png"" alt=""map"" style=""width: 100%;""><img src=""images/map13_seismic_scaleDef_orientDef_270.png"" alt=""map"" style=""width: 100%;""><img src=""images/map26_Blues_scaleDef_orientMir_090.png"" alt=""map"" style=""width: 100%;""><img src=""images/map12_Spectral_scaleDef_orientMir_090.png"" alt=""map"" style=""width: 100%;""><img src=""images/map23_magma_scaleDef_orientMir_090.png"" alt=""map"" style=""width: 100%;""><img src=""images/map05_GnBu_scaleRev_orientDef_180.png"" alt=""map"" style=""width: 100%;""><img src=""images/map10_RdGy_scaleDef_orientMir_090.png"" alt=""map"" style=""width: 100%;""><img src=""images/map02_PuRd_scaleRev_orientMir_000.png"" alt=""map"" style=""width: 100%;""><img src=""images/map07_BuGn_scaleDef_orientDef_090.png"" alt=""map"" style=""width: 100%;""><img src=""images/map15_gist_earth_scaleDef_orientDef_270.png"" alt=""map"" style=""width: 100%;""><img src=""images/map12_RdBu_scaleRev_orientDef_000.png"" alt=""map"" style=""width: 100%;""><img src=""images/map26_Greens_scaleDef_orientMir_270.png"" alt=""map"" style=""width: 100%;""><img src=""images/map10_BrBG_scaleRev_orientDef_180.png"" alt=""map"" style=""width: 100%;""><img src=""images/map26_cividis_scaleRev_orientDef_000.png"" alt=""map"" style=""width: 100%;""><img src=""images/map02_YlOrRd_scaleRev_orientDef_000.png"" alt=""map"" style=""width: 100%;""><img src=""images/map23_inferno_scaleDef_orientDef_270.png"" alt=""map"" style=""width: 100%;""><img src=""images/map13_managua_scaleDef_orientMir_270.png"" alt=""map"" style=""width: 100%;""><img src=""images/map26_Purples_scaleRev_orientMir_000.png"" alt=""map"" style=""width: 100%;""><img src=""images/map13_berlin_scaleDef_orientMir_090.png"" alt=""map"" style=""width: 100%;""><img src=""images/map15_turbo_scaleDef_orientMir_090.png"" alt=""map"" style=""width: 100%;""><img src=""images/map02_OrRd_scaleDef_orientDef_090.png"" alt=""map"" style=""width: 100%;"">
                    </div>
                </div>

                    <!-- Clear floats -->
                    <div style=""clear: both;""></div>
                </div>
                            ",NA,"",0,"true",NA,"","","",NA,NA,NA,"","","","",NA,NA
"","","","","","html-button-response",7,23147,"0.0-7.0","h12bc2ehmy",55,843,"<div style=""width:800px;""><p style=""text-align:left"">To move the slider, click and drag your cursor to the location of the scale where you would like to make your rating and then let go. When you let go of the slider, your response will be recorded and the next trial will begin. <br>
                    We are interested in your initial impressions of each map for the given concept, so please go with your first intuition. <br>
                    Before you begin the experiment, there will be four training trials for you to practice using the scale. <br>
                     When you are ready to start the training trials, please click ""Continue"".</p><br></div>",0.5,"",NA,"",NA,"","","",NA,NA,NA,"","","","",NA,NA
"","","","","","html-slider-response",8,24448,"0.0-8.0-0.0","h12bc2ehmy",55,NA,"<div style=""width:500px;"">
                                    <p style=""font-size:25px;"">Please move the slider all the way to the <br> right endpoint of the scale</p>

                                    </div>
                                </div>",0.9875,"",0,"true",0,"true","","",NA,NA,NA,"","","","",NA,NA
"","","","","","html-button-response",9,26307,"0.0-8.0-1.0","h12bc2ehmy",55,1354,"<p align='center'><b>Good job!</b> Click on 'Continue' to proceed.</p>",0.5,"",NA,"",NA,"","","",NA,NA,NA,"","","","",NA,NA
"","","","","","html-slider-response",10,30876,"0.0-9.0-0.0","h12bc2ehmy",55,NA,"<div style=""width:500px;"">
                                    <p style=""font-size:25px;"">Please move the slider all the way to the <br> left endpoint of the scale</p>

                                    </div>
                                </div>",0.0475,"",0,"true",1,"true","","",NA,NA,NA,"","","","",NA,NA
"","","","","","html-button-response",11,32432,"0.0-9.0-1.0","h12bc2ehmy",55,1038,"<p align='center'><b>Good job!</b> Click on 'Continue' to proceed.</p>",0.5,"",NA,"",NA,"","","",NA,NA,NA,"","","","",NA,NA
"","","","","","html-slider-response",12,49667,"0.0-10.0-0.0","h12bc2ehmy",55,NA,"<div style=""width:500px;"">
                                    <p style=""font-size:25px;"">Please move the slider halfway between the center and right endpoint of the scale</p>

                                    </div>
                                </div>",0.7275,"",0,"true",2,"true","","",NA,NA,NA,"","","","",NA,NA
"","","","","","html-button-response",13,50969,"0.0-10.0-1.0","h12bc2ehmy",55,787,"<p align='center'><b>Good job!</b> Click on 'Continue' to proceed.</p>",0.5,"",NA,"",NA,"","","",NA,NA,NA,"","","","",NA,NA
"","","","","","html-slider-response",14,58845,"0.0-11.0-0.0","h12bc2ehmy",55,NA,"<div style=""width:500px;"">
                                    <p style=""font-size:25px;"">Please move the slider halfway between the center and left endpoint of the scale</p>

                                    </div>
                                </div>",0.285,"",0,"true",3,"true","","",NA,NA,NA,"","","","",NA,NA
"","","","","","html-button-response",15,60027,"0.0-11.0-1.0","h12bc2ehmy",55,676,"<p align='center'><b>Good job!</b> Click on 'Continue' to proceed.</p>",0.5,"",NA,"",NA,"","","",NA,NA,NA,"","","","",NA,NA
"","","","","","html-button-response",16,61241,"0.0-12.0","h12bc2ehmy",55,1213,"<p>Great job! You've completed the practice trials. Now you will begin the main task.</p>",0.5,"",NA,"",NA,"","","",NA,NA,NA,"","","","",NA,NA
"","","","","","html-button-response",17,62043,"0.0-13.0","h12bc2ehmy",55,801,"<p>In this block of trials, you will be asked to rate how much you associate each map with:</p > <p style = 'font-size:150%; font-weight: bold'>angry</p><br></br>",0.5,"",NA,"",NA,"","","",NA,NA,NA,"","","","",NA,NA
"","","","","","html-slider-response",18,64737,"0.0-14.0","h12bc2ehmy",55,NA,"<div style=""width:500px;"">
                            <p style=""font-size:50px; font-weight:bold;""
                            >angry</p>
                            <div style=""width:240px; margin: auto;"">
                                <img src=""images/map05_YlGnBu_scaleDef_orientMir_090.png"" style= ""width:200px""alt=""img"">
                            </div>
                        </div>",0.255,"",0,"",NA,"","images/map05_YlGnBu_scaleDef_orientMir_090.png","angry",1,5,5,"YlGnBu","orientMir","scaleDef","090",NA,NA
"","","","","","html-slider-response",19,75802,"0.0-15.0","h12bc2ehmy",55,NA,"<div style=""width:500px;"">
                            <p style=""font-size:50px; font-weight:bold;""
                            >angry</p>
                            <div style=""width:240px; margin: auto;"">
                                <img src=""images/map15_turbo_scaleRev_orientMir_180.png"" style= ""width:200px""alt=""img"">
                            </div>
                        </div>",0.805,"",0,"",NA,"","images/map15_turbo_scaleRev_orientMir_180.png","angry",1,15,15,"turbo","orientMir","scaleRev","180",NA,NA
"","","","","","html-slider-response",20,85503,"0.0-16.0","h12bc2ehmy",55,NA,"<div style=""width:500px;"">
                            <p style=""font-size:50px; font-weight:bold;""
                            >angry</p>
                            <div style=""width:240px; margin: auto;"">
                                <img src=""images/map13_bwr_scaleDef_orientDef_090.png"" style= ""width:200px""alt=""img"">
                            </div>
                        </div>",0.605,"",0,"",NA,"","images/map13_bwr_scaleDef_orientDef_090.png","angry",1,13,13,"bwr","orientDef","scaleDef","090",NA,NA
"","","","","","html-slider-response",21,90303,"0.0-17.0","h12bc2ehmy",55,NA,"<div style=""width:500px;"">
                            <p style=""font-size:50px; font-weight:bold;""
                            >angry</p>
                            <div style=""width:240px; margin: auto;"">
                                <img src=""images/map10_RdBu_scaleDef_orientMir_270.png"" style= ""width:200px""alt=""img"">
                            </div>
                        </div>",0.5,"",0,"",NA,"","images/map10_RdBu_scaleDef_orientMir_270.png","angry",1,10,10,"RdBu","orientMir","scaleDef","270",NA,NA
"","","","","","html-slider-response",22,94608,"0.0-18.0","h12bc2ehmy",55,NA,"<div style=""width:500px;"">
                            <p style=""font-size:50px; font-weight:bold;""
                            >angry</p>
                            <div style=""width:240px; margin: auto;"">
                                <img src=""images/map05_YlGnBu_scaleRev_orientMir_180.png"" style= ""width:200px""alt=""img"">
                            </div>
                        </div>",0.305,"",0,"",NA,"","images/map05_YlGnBu_scaleRev_orientMir_180.png","angry",1,5,5,"YlGnBu","orientMir","scaleRev","180",NA,NA
"","","","","","html-slider-response",23,97837,"0.0-19.0","h12bc2ehmy",55,NA,"<div style=""width:500px;"">
                            <p style=""font-size:50px; font-weight:bold;""
                            >angry</p>
                            <div style=""width:240px; margin: auto;"">
                                <img src=""images/map02_RdPu_scaleDef_orientMir_090.png"" style= ""width:200px""alt=""img"">
                            </div>
                        </div>",0.155,"",0,"",NA,"","images/map02_RdPu_scaleDef_orientMir_090.png","angry",1,2,2,"RdPu","orientMir","scaleDef","090",NA,NA
"","","","","","html-slider-response",24,106831,"0.0-20.0","h12bc2ehmy",55,NA,"<div style=""width:500px;"">
                            <p style=""font-size:50px; font-weight:bold;""
                            >angry</p>
                            <div style=""width:240px; margin: auto;"">
                                <img src=""images/map27_YlOrRd_scaleDef_orientMir_270.png"" style= ""width:200px""alt=""img"">
                            </div>
                        </div>",0.855,"",0,"",NA,"","images/map27_YlOrRd_scaleDef_orientMir_270.png","angry",1,27,27,"YlOrRd","orientMir","scaleDef","270",NA,NA
"","","","","","html-slider-response",25,115585,"0.0-21.0","h12bc2ehmy",55,NA,"<div style=""width:500px;"">
                            <p style=""font-size:50px; font-weight:bold;""
                            >angry</p>
                            <div style=""width:240px; margin: auto;"">
                                <img src=""images/map13_coolwarm_scaleRev_orientDef_000.png"" style= ""width:200px""alt=""img"">
                            </div>
                        </div>",0.6525,"",0,"",NA,"","images/map13_coolwarm_scaleRev_orientDef_000.png","angry",1,13,13,"coolwarm","orientDef","scaleRev","000",NA,NA
"","","","","","html-slider-response",26,121252,"0.0-22.0","h12bc2ehmy",55,NA,"<div style=""width:500px;"">
                            <p style=""font-size:50px; font-weight:bold;""
                            >angry</p>
                            <div style=""width:240px; margin: auto;"">
                                <img src=""images/map02_YlOrRd_scaleRev_orientDef_000.png"" style= ""width:200px""alt=""img"">
                            </div>
                        </div>",0.8275,"",0,"",NA,"","images/map02_YlOrRd_scaleRev_orientDef_000.png","angry",1,2,2,"YlOrRd","orientDef","scaleRev","000",NA,NA
"","","","","","html-slider-response",27,126073,"0.0-23.0","h12bc2ehmy",55,NA,"<div style=""width:500px;"">
                            <p style=""font-size:50px; font-weight:bold;""
                            >angry</p>
                            <div style=""width:240px; margin: auto;"">
                                <img src=""images/map15_vanimo_scaleDef_orientDef_090.png"" style= ""width:200px""alt=""img"">
                            </div>
                        </div>",0.35,"",0,"",NA,"","images/map15_vanimo_scaleDef_orientDef_090.png","angry",1,15,15,"vanimo","orientDef","scaleDef","090",NA,NA
"","","","","","html-slider-response",28,132928,"0.0-24.0","h12bc2ehmy",55,NA,"<div style=""width:500px;"">
                            <p style=""font-size:50px; font-weight:bold;""
                            >angry</p>
                            <div style=""width:240px; margin: auto;"">
                                <img src=""images/map10_RdGy_scaleDef_orientMir_090.png"" style= ""width:200px""alt=""img"">
                            </div>
                        </div>",0.595,"",0,"",NA,"","images/map10_RdGy_scaleDef_orientMir_090.png","angry",1,10,10,"RdGy","orientMir","scaleDef","090",NA,NA
"","","","","","html-slider-response",29,137597,"0.0-25.0","h12bc2ehmy",55,NA,"<div style=""width:500px;"">
                            <p style=""font-size:50px; font-weight:bold;""
                            >angry</p>
                            <div style=""width:240px; margin: auto;"">
                                <img src=""images/map07_PRGn_scaleDef_orientMir_270.png"" style= ""width:200px""alt=""img"">
                            </div>
                        </div>",0.425,"",0,"",NA,"","images/map07_PRGn_scaleDef_orientMir_270.png","angry",1,7,7,"PRGn","orientMir","scaleDef","270",NA,NA
"","","","","","html-slider-response",30,140195,"0.0-26.0","h12bc2ehmy",55,NA,"<div style=""width:500px;"">
                            <p style=""font-size:50px; font-weight:bold;""
                            >angry</p>
                            <div style=""width:240px; margin: auto;"">
                                <img src=""images/map12_coolwarm_scaleDef_orientMir_270.png"" style= ""width:200px""alt=""img"">
                            </div>
                        </div>",0.5675,"",0,"",NA,"","images/map12_coolwarm_scaleDef_orientMir_270.png","angry",1,12,12,"coolwarm","orientMir","scaleDef","270",NA,NA
"","","","","","html-slider-response",31,155442,"0.0-27.0","h12bc2ehmy",55,NA,"<div style=""width:500px;"">
                            <p style=""font-size:50px; font-weight:bold;""
                            >angry</p>
                            <div style=""width:240px; margin: auto;"">
                                <img src=""images/map27_YlOrBr_scaleDef_orientMir_090.png"" style= ""width:200px""alt=""img"">
                            </div>
                        </div>",0.7275,"",0,"",NA,"","images/map27_YlOrBr_scaleDef_orientMir_090.png","angry",1,27,27,"YlOrBr","orientMir","scaleDef","090",NA,NA
"","","","","","html-slider-response",32,159498,"0.0-28.0","h12bc2ehmy",55,NA,"<div style=""width:500px;"">
                            <p style=""font-size:50px; font-weight:bold;""
                            >angry</p>
                            <div style=""width:240px; margin: auto;"">
                                <img src=""images/map15_managua_scaleRev_orientDef_000.png"" style= ""width:200px""alt=""img"">
                            </div>
                        </div>",0.36,"",0,"",NA,"","images/map15_managua_scaleRev_orientDef_000.png","angry",1,15,15,"managua","orientDef","scaleRev","000",NA,NA
"","","","","","html-slider-response",33,165753,"0.0-29.0","h12bc2ehmy",55,NA,"<div style=""width:500px;"">
                            <p style=""font-size:50px; font-weight:bold;""
                            >angry</p>
                            <div style=""width:240px; margin: auto;"">
                                <img src=""images/map23_cividis_scaleDef_orientMir_270.png"" style= ""width:200px""alt=""img"">
                            </div>
                        </div>",0.26,"",0,"",NA,"","images/map23_cividis_scaleDef_orientMir_270.png","angry",1,23,23,"cividis","orientMir","scaleDef","270",NA,NA
"","","","","","html-slider-response",34,167936,"0.0-30.0","h12bc2ehmy",55,NA,"<div style=""width:500px;"">
                            <p style=""font-size:50px; font-weight:bold;""
                            >angry</p>
                            <div style=""width:240px; margin: auto;"">
                                <img src=""images/map05_PuBu_scaleDef_orientDef_270.png"" style= ""width:200px""alt=""img"">
                            </div>
                        </div>",0.305,"",0,"",NA,"","images/map05_PuBu_scaleDef_orientDef_270.png","angry",1,5,5,"PuBu","orientDef","scaleDef","270",NA,NA
"","","","","","html-slider-response",35,170457,"0.0-31.0","h12bc2ehmy",55,NA,"<div style=""width:500px;"">
                            <p style=""font-size:50px; font-weight:bold;""
                            >angry</p>
                            <div style=""width:240px; margin: auto;"">
                                <img src=""images/map15_viridis_scaleDef_orientMir_270.png"" style= ""width:200px""alt=""img"">
                            </div>
                        </div>",0.4125,"",0,"",NA,"","images/map15_viridis_scaleDef_orientMir_270.png","angry",1,15,15,"viridis","orientMir","scaleDef","270",NA,NA
"","","","","","html-slider-response",36,179877,"0.0-32.0","h12bc2ehmy",55,NA,"<div style=""width:500px;"">
                            <p style=""font-size:50px; font-weight:bold;""
                            >angry</p>
                            <div style=""width:240px; margin: auto;"">
                                <img src=""images/map26_Greens_scaleDef_orientMir_270.png"" style= ""width:200px""alt=""img"">
                            </div>
                        </div>",0.395,"",0,"",NA,"","images/map26_Greens_scaleDef_orientMir_270.png","angry",1,26,26,"Greens","orientMir","scaleDef","270",NA,NA
"","","","","","html-slider-response",37,186819,"0.0-33.0","h12bc2ehmy",55,NA,"<div style=""width:500px;"">
                            <p style=""font-size:50px; font-weight:bold;""
                            >angry</p>
                            <div style=""width:240px; margin: auto;"">
                                <img src=""images/map05_PuBuGn_scaleDef_orientMir_270.png"" style= ""width:200px""alt=""img"">
                            </div>
                        </div>",0.1075,"",0,"",NA,"","images/map05_PuBuGn_scaleDef_orientMir_270.png","angry",1,5,5,"PuBuGn","orientMir","scaleDef","270",NA,NA
"","","","","","html-slider-response",38,191805,"0.0-34.0","h12bc2ehmy",55,NA,"<div style=""width:500px;"">
                            <p style=""font-size:50px; font-weight:bold;""
                            >angry</p>
                            <div style=""width:240px; margin: auto;"">
                                <img src=""images/map12_RdBu_scaleRev_orientDef_000.png"" style= ""width:200px""alt=""img"">
                            </div>
                        </div>",0.6125,"",0,"",NA,"","images/map12_RdBu_scaleRev_orientDef_000.png","angry",1,12,12,"RdBu","orientDef","scaleRev","000",NA,NA
"","","","","","html-slider-response",39,197254,"0.0-35.0","h12bc2ehmy",55,NA,"<div style=""width:500px;"">
                            <p style=""font-size:50px; font-weight:bold;""
                            >angry</p>
                            <div style=""width:240px; margin: auto;"">
                                <img src=""images/map15_gist_earth_scaleDef_orientDef_270.png"" style= ""width:200px""alt=""img"">
                            </div>
                        </div>",0.235,"",0,"",NA,"","images/map15_gist_earth_scaleDef_orientDef_270.png","angry",1,15,15,"gist","scaleDef","earth","orientDef",NA,NA
"","","","","","html-slider-response",40,222433,"0.0-36.0","h12bc2ehmy",55,NA,"<div style=""width:500px;"">
                            <p style=""font-size:50px; font-weight:bold;""
                            >angry</p>
                            <div style=""width:240px; margin: auto;"">
                                <img src=""images/map10_PRGn_scaleRev_orientDef_000.png"" style= ""width:200px""alt=""img"">
                            </div>
                        </div>",0.385,"",0,"",NA,"","images/map10_PRGn_scaleRev_orientDef_000.png","angry",1,10,10,"PRGn","orientDef","scaleRev","000",NA,NA
"","","","","","html-slider-response",41,225066,"0.0-37.0","h12bc2ehmy",55,NA,"<div style=""width:500px;"">
                            <p style=""font-size:50px; font-weight:bold;""
                            >angry</p>
                            <div style=""width:240px; margin: auto;"">
                                <img src=""images/map15_vanimo_scaleRev_orientDef_180.png"" style= ""width:200px""alt=""img"">
                            </div>
                        </div>",0.175,"",0,"",NA,"","images/map15_vanimo_scaleRev_orientDef_180.png","angry",1,15,15,"vanimo","orientDef","scaleRev","180",NA,NA
"","","","","","html-slider-response",42,231150,"0.0-38.0","h12bc2ehmy",55,NA,"<div style=""width:500px;"">
                            <p style=""font-size:50px; font-weight:bold;""
                            >angry</p>
                            <div style=""width:240px; margin: auto;"">
                                <img src=""images/map12_RdYlBu_scaleRev_orientDef_180.png"" style= ""width:200px""alt=""img"">
                            </div>
                        </div>",0.665,"",0,"",NA,"","images/map12_RdYlBu_scaleRev_orientDef_180.png","angry",1,12,12,"RdYlBu","orientDef","scaleRev","180",NA,NA
"","","","","","html-slider-response",43,235138,"0.0-39.0","h12bc2ehmy",55,NA,"<div style=""width:500px;"">
                            <p style=""font-size:50px; font-weight:bold;""
                            >angry</p>
                            <div style=""width:240px; margin: auto;"">
                                <img src=""images/map15_gist_earth_scaleRev_orientMir_000.png"" style= ""width:200px""alt=""img"">
                            </div>
                        </div>",0.1725,"",0,"",NA,"","images/map15_gist_earth_scaleRev_orientMir_000.png","angry",1,15,15,"gist","scaleRev","earth","orientMir",NA,NA
"","","","","","html-slider-response",44,236967,"0.0-40.0","h12bc2ehmy",55,NA,"<div style=""width:500px;"">
                            <p style=""font-size:50px; font-weight:bold;""
                            >angry</p>
                            <div style=""width:240px; margin: auto;"">
                                <img src=""images/map05_GnBu_scaleDef_orientDef_090.png"" style= ""width:200px""alt=""img"">
                            </div>
                        </div>",0.1025,"",0,"",NA,"","images/map05_GnBu_scaleDef_orientDef_090.png","angry",1,5,5,"GnBu","orientDef","scaleDef","090",NA,NA
"","","","","","html-slider-response",45,239449,"0.0-41.0","h12bc2ehmy",55,NA,"<div style=""width:500px;"">
                            <p style=""font-size:50px; font-weight:bold;""
                            >angry</p>
                            <div style=""width:240px; margin: auto;"">
                                <img src=""images/map02_RdPu_scaleRev_orientMir_180.png"" style= ""width:200px""alt=""img"">
                            </div>
                        </div>",0.095,"",0,"",NA,"","images/map02_RdPu_scaleRev_orientMir_180.png","angry",1,2,2,"RdPu","orientMir","scaleRev","180",NA,NA
"","","","","","html-slider-response",46,246121,"0.0-42.0","h12bc2ehmy",55,NA,"<div style=""width:500px;"">
                            <p style=""font-size:50px; font-weight:bold;""
                            >angry</p>
                            <div style=""width:240px; margin: auto;"">
                                <img src=""images/map12_RdYlGn_scaleDef_orientDef_270.png"" style= ""width:200px""alt=""img"">
                            </div>
                        </div>",0.5875,"",0,"",NA,"","images/map12_RdYlGn_scaleDef_orientDef_270.png","angry",1,12,12,"RdYlGn","orientDef","scaleDef","270",NA,NA
"","","","","","html-slider-response",47,259889,"0.0-43.0","h12bc2ehmy",55,NA,"<div style=""width:500px;"">
                            <p style=""font-size:50px; font-weight:bold;""
                            >angry</p>
                            <div style=""width:240px; margin: auto;"">
                                <img src=""images/map12_RdYlGn_scaleRev_orientMir_000.png"" style= ""width:200px""alt=""img"">
                            </div>
                        </div>",0.705,"",0,"",NA,"","images/map12_RdYlGn_scaleRev_orientMir_000.png","angry",1,12,12,"RdYlGn","orientMir","scaleRev","000",NA,NA
"","","","","","html-slider-response",48,263423,"0.0-44.0","h12bc2ehmy",55,NA,"<div style=""width:500px;"">
                            <p style=""font-size:50px; font-weight:bold;""
                            >angry</p>
                            <div style=""width:240px; margin: auto;"">
                                <img src=""images/map23_plasma_scaleRev_orientDef_180.png"" style= ""width:200px""alt=""img"">
                            </div>
                        </div>",0.505,"",0,"",NA,"","images/map23_plasma_scaleRev_orientDef_180.png","angry",1,23,23,"plasma","orientDef","scaleRev","180",NA,NA
"","","","","","html-slider-response",49,265434,"0.0-45.0","h12bc2ehmy",55,NA,"<div style=""width:500px;"">
                            <p style=""font-size:50px; font-weight:bold;""
                            >angry</p>
                            <div style=""width:240px; margin: auto;"">
                                <img src=""images/map07_BuGn_scaleDef_orientDef_090.png"" style= ""width:200px""alt=""img"">
                            </div>
                        </div>",0.2175,"",0,"",NA,"","images/map07_BuGn_scaleDef_orientDef_090.png","angry",1,7,7,"BuGn","orientDef","scaleDef","090",NA,NA
"","","","","","html-slider-response",50,274119,"0.0-46.0","h12bc2ehmy",55,NA,"<div style=""width:500px;"">
                            <p style=""font-size:50px; font-weight:bold;""
                            >angry</p>
                            <div style=""width:240px; margin: auto;"">
                                <img src=""images/map27_YlOrBr_scaleRev_orientMir_180.png"" style= ""width:200px""alt=""img"">
                            </div>
                        </div>",0.7275,"",0,"",NA,"","images/map27_YlOrBr_scaleRev_orientMir_180.png","angry",1,27,27,"YlOrBr","orientMir","scaleRev","180",NA,NA
"","","","","","html-slider-response",51,280882,"0.0-47.0","h12bc2ehmy",55,NA,"<div style=""width:500px;"">
                            <p style=""font-size:50px; font-weight:bold;""
                            >angry</p>
                            <div style=""width:240px; margin: auto;"">
                                <img src=""images/map07_PiYG_scaleRev_orientMir_180.png"" style= ""width:200px""alt=""img"">
                            </div>
                        </div>",0.245,"",0,"",NA,"","images/map07_PiYG_scaleRev_orientMir_180.png","angry",1,7,7,"PiYG","orientMir","scaleRev","180",NA,NA
"","","","","","html-slider-response",52,284748,"0.0-48.0","h12bc2ehmy",55,NA,"<div style=""width:500px;"">
                            <p style=""font-size:50px; font-weight:bold;""
                            >angry</p>
                            <div style=""width:240px; margin: auto;"">
                                <img src=""images/map27_Reds_scaleDef_orientDef_270.png"" style= ""width:200px""alt=""img"">
                            </div>
                        </div>",0.7775,"",0,"",NA,"","images/map27_Reds_scaleDef_orientDef_270.png","angry",1,27,27,"Reds","orientDef","scaleDef","270",NA,NA
"","","","","","html-slider-response",53,289053,"0.0-49.0","h12bc2ehmy",55,NA,"<div style=""width:500px;"">
                            <p style=""font-size:50px; font-weight:bold;""
                            >angry</p>
                            <div style=""width:240px; margin: auto;"">
                                <img src=""images/map27_Greens_scaleRev_orientDef_000.png"" style= ""width:200px""alt=""img"">
                            </div>
                        </div>",0.1925,"",0,"",NA,"","images/map27_Greens_scaleRev_orientDef_000.png","angry",1,27,27,"Greens","orientDef","scaleRev","000",NA,NA
"","","","","","html-slider-response",54,289604,"0.0-50.0","h12bc2ehmy",55,NA,"<div style=""width:500px;"">
                            <p style=""font-size:50px; font-weight:bold;""
                            >angry</p>
                            <div style=""width:240px; margin: auto;"">
                                <img src=""images/map02_OrRd_scaleRev_orientDef_180.png"" style= ""width:200px""alt=""img"">
                            </div>
                        </div>",0.205,"",0,"",NA,"","images/map02_OrRd_scaleRev_orientDef_180.png","angry",1,2,2,"OrRd","orientDef","scaleRev","180",NA,NA
"","","","","","html-slider-response",55,291238,"0.0-51.0","h12bc2ehmy",55,NA,"<div style=""width:500px;"">
                            <p style=""font-size:50px; font-weight:bold;""
                            >angry</p>
                            <div style=""width:240px; margin: auto;"">
                                <img src=""images/map10_BrBG_scaleDef_orientDef_090.png"" style= ""width:200px""alt=""img"">
                            </div>
                        </div>",0.205,"",0,"",NA,"","images/map10_BrBG_scaleDef_orientDef_090.png","angry",1,10,10,"BrBG","orientDef","scaleDef","090",NA,NA
"","","","","","html-slider-response",56,293880,"0.0-52.0","h12bc2ehmy",55,NA,"<div style=""width:500px;"">
                            <p style=""font-size:50px; font-weight:bold;""
                            >angry</p>
                            <div style=""width:240px; margin: auto;"">
                                <img src=""images/map26_Blues_scaleDef_orientMir_090.png"" style= ""width:200px""alt=""img"">
                            </div>
                        </div>",0.0525,"",0,"",NA,"","images/map26_Blues_scaleDef_orientMir_090.png","angry",1,26,26,"Blues","orientMir","scaleDef","090",NA,NA
"","","","","","html-slider-response",57,298067,"0.0-53.0","h12bc2ehmy",55,NA,"<div style=""width:500px;"">
                            <p style=""font-size:50px; font-weight:bold;""
                            >angry</p>
                            <div style=""width:240px; margin: auto;"">
                                <img src=""images/map26_Blues_scaleRev_orientMir_180.png"" style= ""width:200px""alt=""img"">
                            </div>
                        </div>",0.04,"",0,"",NA,"","images/map26_Blues_scaleRev_orientMir_180.png","angry",1,26,26,"Blues","orientMir","scaleRev","180",NA,NA
"","","","","","html-button-response",58,300133,"0.0-54.0","h12bc2ehmy",55,1550,"<p>You are doing great!<br></br> You are halway done with the current block. When you are ready to continue, click the 'Continue' button.</p>",0.5,"",NA,"",NA,"","","",NA,NA,NA,"","","","",NA,NA
"","","","","","html-slider-response",59,304020,"0.0-55.0","h12bc2ehmy",55,NA,"<div style=""width:500px;"">
                            <p style=""font-size:50px; font-weight:bold;""
                            >angry</p>
                            <div style=""width:240px; margin: auto;"">
                                <img src=""images/map05_GnBu_scaleRev_orientDef_180.png"" style= ""width:200px""alt=""img"">
                            </div>
                        </div>",0.335,"",0,"",NA,"","images/map05_GnBu_scaleRev_orientDef_180.png","angry",1,5,5,"GnBu","orientDef","scaleRev","180",NA,NA
"","","","","","html-slider-response",60,313543,"0.0-56.0","h12bc2ehmy",55,NA,"<div style=""width:500px;"">
                            <p style=""font-size:50px; font-weight:bold;""
                            >angry</p>
                            <div style=""width:240px; margin: auto;"">
                                <img src=""images/map12_Spectral_scaleRev_orientMir_180.png"" style= ""width:200px""alt=""img"">
                            </div>
                        </div>",0.665,"",0,"",NA,"","images/map12_Spectral_scaleRev_orientMir_180.png","angry",1,12,12,"Spectral","orientMir","scaleRev","180",NA,NA
"","","","","","html-slider-response",61,319911,"0.0-57.0","h12bc2ehmy",55,NA,"<div style=""width:500px;"">
                            <p style=""font-size:50px; font-weight:bold;""
                            >angry</p>
                            <div style=""width:240px; margin: auto;"">
                                <img src=""images/map23_inferno_scaleRev_orientMir_000.png"" style= ""width:200px""alt=""img"">
                            </div>
                        </div>",0.765,"",0,"",NA,"","images/map23_inferno_scaleRev_orientMir_000.png","angry",1,23,23,"inferno","orientMir","scaleRev","000",NA,NA
"","","","","","html-slider-response",62,321350,"0.0-58.0","h12bc2ehmy",55,NA,"<div style=""width:500px;"">
                            <p style=""font-size:50px; font-weight:bold;""
                            >angry</p>
                            <div style=""width:240px; margin: auto;"">
                                <img src=""images/map10_RdGy_scaleRev_orientMir_180.png"" style= ""width:200px""alt=""img"">
                            </div>
                        </div>",0.6525,"",0,"",NA,"","images/map10_RdGy_scaleRev_orientMir_180.png","angry",1,10,10,"RdGy","orientMir","scaleRev","180",NA,NA
"","","","","","html-slider-response",63,322934,"0.0-59.0","h12bc2ehmy",55,NA,"<div style=""width:500px;"">
                            <p style=""font-size:50px; font-weight:bold;""
                            >angry</p>
                            <div style=""width:240px; margin: auto;"">
                                <img src=""images/map23_viridis_scaleRev_orientDef_000.png"" style= ""width:200px""alt=""img"">
                            </div>
                        </div>",0.225,"",0,"",NA,"","images/map23_viridis_scaleRev_orientDef_000.png","angry",1,23,23,"viridis","orientDef","scaleRev","000",NA,NA
"","","","","","html-slider-response",64,324471,"0.0-60.0","h12bc2ehmy",55,NA,"<div style=""width:500px;"">
                            <p style=""font-size:50px; font-weight:bold;""
                            >angry</p>
                            <div style=""width:240px; margin: auto;"">
                                <img src=""images/map07_PuBuGn_scaleRev_orientDef_000.png"" style= ""width:200px""alt=""img"">
                            </div>
                        </div>",0.245,"",0,"",NA,"","images/map07_PuBuGn_scaleRev_orientDef_000.png","angry",1,7,7,"PuBuGn","orientDef","scaleRev","000",NA,NA
"","","","","","html-slider-response",65,329671,"0.0-61.0","h12bc2ehmy",55,NA,"<div style=""width:500px;"">
                            <p style=""font-size:50px; font-weight:bold;""
                            >angry</p>
                            <div style=""width:240px; margin: auto;"">
                                <img src=""images/map23_magma_scaleDef_orientMir_090.png"" style= ""width:200px""alt=""img"">
                            </div>
                        </div>",0.6375,"",0,"",NA,"","images/map23_magma_scaleDef_orientMir_090.png","angry",1,23,23,"magma","orientMir","scaleDef","090",NA,NA
"","","","","","html-slider-response",66,339705,"0.0-62.0","h12bc2ehmy",55,NA,"<div style=""width:500px;"">
                            <p style=""font-size:50px; font-weight:bold;""
                            >angry</p>
                            <div style=""width:240px; margin: auto;"">
                                <img src=""images/map02_OrRd_scaleDef_orientDef_090.png"" style= ""width:200px""alt=""img"">
                            </div>
                        </div>",0.7675,"",0,"",NA,"","images/map02_OrRd_scaleDef_orientDef_090.png","angry",1,2,2,"OrRd","orientDef","scaleDef","090",NA,NA
"","","","","","html-slider-response",67,341350,"0.0-63.0","h12bc2ehmy",55,NA,"<div style=""width:500px;"">
                            <p style=""font-size:50px; font-weight:bold;""
                            >angry</p>
                            <div style=""width:240px; margin: auto;"">
                                <img src=""images/map10_BrBG_scaleRev_orientDef_180.png"" style= ""width:200px""alt=""img"">
                            </div>
                        </div>",0.305,"",0,"",NA,"","images/map10_BrBG_scaleRev_orientDef_180.png","angry",1,10,10,"BrBG","orientDef","scaleRev","180",NA,NA
"","","","","","html-slider-response",68,356958,"0.0-64.0","h12bc2ehmy",55,NA,"<div style=""width:500px;"">
                            <p style=""font-size:50px; font-weight:bold;""
                            >angry</p>
                            <div style=""width:240px; margin: auto;"">
                                <img src=""images/map26_cividis_scaleRev_orientDef_000.png"" style= ""width:200px""alt=""img"">
                            </div>
                        </div>",0.1475,"",0,"",NA,"","images/map26_cividis_scaleRev_orientDef_000.png","angry",1,26,26,"cividis","orientDef","scaleRev","000",NA,NA
"","","","","","html-slider-response",69,362026,"0.0-65.0","h12bc2ehmy",55,NA,"<div style=""width:500px;"">
                            <p style=""font-size:50px; font-weight:bold;""
                            >angry</p>
                            <div style=""width:240px; margin: auto;"">
                                <img src=""images/map05_PuBu_scaleRev_orientMir_000.png"" style= ""width:200px""alt=""img"">
                            </div>
                        </div>",0.1725,"",0,"",NA,"","images/map05_PuBu_scaleRev_orientMir_000.png","angry",1,5,5,"PuBu","orientMir","scaleRev","000",NA,NA
"","","","","","html-slider-response",70,366115,"0.0-66.0","h12bc2ehmy",55,NA,"<div style=""width:500px;"">
                            <p style=""font-size:50px; font-weight:bold;""
                            >angry</p>
                            <div style=""width:240px; margin: auto;"">
                                <img src=""images/map27_Oranges_scaleRev_orientDef_180.png"" style= ""width:200px""alt=""img"">
                            </div>
                        </div>",0.6575,"",0,"",NA,"","images/map27_Oranges_scaleRev_orientDef_180.png","angry",1,27,27,"Oranges","orientDef","scaleRev","180",NA,NA
"","","","","","html-slider-response",71,374896,"0.0-67.0","h12bc2ehmy",55,NA,"<div style=""width:500px;"">
                            <p style=""font-size:50px; font-weight:bold;""
                            >angry</p>
                            <div style=""width:240px; margin: auto;"">
                                <img src=""images/map13_seismic_scaleDef_orientDef_270.png"" style= ""width:200px""alt=""img"">
                            </div>
                        </div>",0.535,"",0,"",NA,"","images/map13_seismic_scaleDef_orientDef_270.png","angry",1,13,13,"seismic","orientDef","scaleDef","270",NA,NA
"","","","","","html-slider-response",72,381254,"0.0-68.0","h12bc2ehmy",55,NA,"<div style=""width:500px;"">
                            <p style=""font-size:50px; font-weight:bold;""
                            >angry</p>
                            <div style=""width:240px; margin: auto;"">
                                <img src=""images/map05_BuPu_scaleRev_orientDef_000.png"" style= ""width:200px""alt=""img"">
                            </div>
                        </div>",0.245,"",0,"",NA,"","images/map05_BuPu_scaleRev_orientDef_000.png","angry",1,5,5,"BuPu","orientDef","scaleRev","000",NA,NA
"","","","","","html-slider-response",73,383851,"0.0-69.0","h12bc2ehmy",55,NA,"<div style=""width:500px;"">
                            <p style=""font-size:50px; font-weight:bold;""
                            >angry</p>
                            <div style=""width:240px; margin: auto;"">
                                <img src=""images/map26_Purples_scaleDef_orientDef_270.png"" style= ""width:200px""alt=""img"">
                            </div>
                        </div>",0.205,"",0,"",NA,"","images/map26_Purples_scaleDef_orientDef_270.png","angry",1,26,26,"Purples","orientDef","scaleDef","270",NA,NA
"","","","","","html-slider-response",74,385831,"0.0-70.0","h12bc2ehmy",55,NA,"<div style=""width:500px;"">
                            <p style=""font-size:50px; font-weight:bold;""
                            >angry</p>
                            <div style=""width:240px; margin: auto;"">
                                <img src=""images/map07_BuGn_scaleRev_orientDef_180.png"" style= ""width:200px""alt=""img"">
                            </div>
                        </div>",0.185,"",0,"",NA,"","images/map07_BuGn_scaleRev_orientDef_180.png","angry",1,7,7,"BuGn","orientDef","scaleRev","180",NA,NA
"","","","","","html-slider-response",75,393384,"0.0-71.0","h12bc2ehmy",55,NA,"<div style=""width:500px;"">
                            <p style=""font-size:50px; font-weight:bold;""
                            >angry</p>
                            <div style=""width:240px; margin: auto;"">
                                <img src=""images/map26_Greys_scaleRev_orientDef_180.png"" style= ""width:200px""alt=""img"">
                            </div>
                        </div>",0.5175,"",0,"",NA,"","images/map26_Greys_scaleRev_orientDef_180.png","angry",1,26,26,"Greys","orientDef","scaleRev","180",NA,NA
"","","","","","html-slider-response",76,395065,"0.0-72.0","h12bc2ehmy",55,NA,"<div style=""width:500px;"">
                            <p style=""font-size:50px; font-weight:bold;""
                            >angry</p>
                            <div style=""width:240px; margin: auto;"">
                                <img src=""images/map15_turbo_scaleDef_orientMir_090.png"" style= ""width:200px""alt=""img"">
                            </div>
                        </div>",0.6575,"",0,"",NA,"","images/map15_turbo_scaleDef_orientMir_090.png","angry",1,15,15,"turbo","orientMir","scaleDef","090",NA,NA
"","","","","","html-slider-response",77,399701,"0.0-73.0","h12bc2ehmy",55,NA,"<div style=""width:500px;"">
                            <p style=""font-size:50px; font-weight:bold;""
                            >angry</p>
                            <div style=""width:240px; margin: auto;"">
                                <img src=""images/map23_magma_scaleRev_orientMir_180.png"" style= ""width:200px""alt=""img"">
                            </div>
                        </div>",0.2525,"",0,"",NA,"","images/map23_magma_scaleRev_orientMir_180.png","angry",1,23,23,"magma","orientMir","scaleRev","180",NA,NA
"","","","","","html-slider-response",78,406305,"0.0-74.0","h12bc2ehmy",55,NA,"<div style=""width:500px;"">
                            <p style=""font-size:50px; font-weight:bold;""
                            >angry</p>
                            <div style=""width:240px; margin: auto;"">
                                <img src=""images/map23_inferno_scaleDef_orientDef_270.png"" style= ""width:200px""alt=""img"">
                            </div>
                        </div>",0.5275,"",0,"",NA,"","images/map23_inferno_scaleDef_orientDef_270.png","angry",1,23,23,"inferno","orientDef","scaleDef","270",NA,NA
"","","","","","html-slider-response",79,411364,"0.0-75.0","h12bc2ehmy",55,NA,"<div style=""width:500px;"">
                            <p style=""font-size:50px; font-weight:bold;""
                            >angry</p>
                            <div style=""width:240px; margin: auto;"">
                                <img src=""images/map13_bwr_scaleRev_orientDef_180.png"" style= ""width:200px""alt=""img"">
                            </div>
                        </div>",0.62,"",0,"",NA,"","images/map13_bwr_scaleRev_orientDef_180.png","angry",1,13,13,"bwr","orientDef","scaleRev","180",NA,NA
"","","","","","html-slider-response",80,414467,"0.0-76.0","h12bc2ehmy",55,NA,"<div style=""width:500px;"">
                            <p style=""font-size:50px; font-weight:bold;""
                            >angry</p>
                            <div style=""width:240px; margin: auto;"">
                                <img src=""images/map12_Spectral_scaleDef_orientMir_090.png"" style= ""width:200px""alt=""img"">
                            </div>
                        </div>",0.275,"",0,"",NA,"","images/map12_Spectral_scaleDef_orientMir_090.png","angry",1,12,12,"Spectral","orientMir","scaleDef","090",NA,NA
"","","","","","html-slider-response",81,424761,"0.0-77.0","h12bc2ehmy",55,NA,"<div style=""width:500px;"">
                            <p style=""font-size:50px; font-weight:bold;""
                            >angry</p>
                            <div style=""width:240px; margin: auto;"">
                                <img src=""images/map07_PiYG_scaleDef_orientMir_090.png"" style= ""width:200px""alt=""img"">
                            </div>
                        </div>",0.305,"",0,"",NA,"","images/map07_PiYG_scaleDef_orientMir_090.png","angry",1,7,7,"PiYG","orientMir","scaleDef","090",NA,NA
"","","","","","html-slider-response",82,429878,"0.0-78.0","h12bc2ehmy",55,NA,"<div style=""width:500px;"">
                            <p style=""font-size:50px; font-weight:bold;""
                            >angry</p>
                            <div style=""width:240px; margin: auto;"">
                                <img src=""images/map13_berlin_scaleDef_orientMir_090.png"" style= ""width:200px""alt=""img"">
                            </div>
                        </div>",0.325,"",0,"",NA,"","images/map13_berlin_scaleDef_orientMir_090.png","angry",1,13,13,"berlin","orientMir","scaleDef","090",NA,NA
"","","","","","html-slider-response",83,431754,"0.0-79.0","h12bc2ehmy",55,NA,"<div style=""width:500px;"">
                            <p style=""font-size:50px; font-weight:bold;""
                            >angry</p>
                            <div style=""width:240px; margin: auto;"">
                                <img src=""images/map02_PuRd_scaleDef_orientDef_270.png"" style= ""width:200px""alt=""img"">
                            </div>
                        </div>",0.0725,"",0,"",NA,"","images/map02_PuRd_scaleDef_orientDef_270.png","angry",1,2,2,"PuRd","orientDef","scaleDef","270",NA,NA
"","","","","","html-slider-response",84,434960,"0.0-80.0","h12bc2ehmy",55,NA,"<div style=""width:500px;"">
                            <p style=""font-size:50px; font-weight:bold;""
                            >angry</p>
                            <div style=""width:240px; margin: auto;"">
                                <img src=""images/map23_plasma_scaleDef_orientDef_090.png"" style= ""width:200px""alt=""img"">
                            </div>
                        </div>",0.345,"",0,"",NA,"","images/map23_plasma_scaleDef_orientDef_090.png","angry",1,23,23,"plasma","orientDef","scaleDef","090",NA,NA
"","","","","","html-slider-response",85,438699,"0.0-81.0","h12bc2ehmy",55,NA,"<div style=""width:500px;"">
                            <p style=""font-size:50px; font-weight:bold;""
                            >angry</p>
                            <div style=""width:240px; margin: auto;"">
                                <img src=""images/map02_PuRd_scaleRev_orientMir_000.png"" style= ""width:200px""alt=""img"">
                            </div>
                        </div>",0.1325,"",0,"",NA,"","images/map02_PuRd_scaleRev_orientMir_000.png","angry",1,2,2,"PuRd","orientMir","scaleRev","000",NA,NA
"","","","","","html-slider-response",86,443224,"0.0-82.0","h12bc2ehmy",55,NA,"<div style=""width:500px;"">
                            <p style=""font-size:50px; font-weight:bold;""
                            >angry</p>
                            <div style=""width:240px; margin: auto;"">
                                <img src=""images/map13_berlin_scaleRev_orientMir_180.png"" style= ""width:200px""alt=""img"">
                            </div>
                        </div>",0.3925,"",0,"",NA,"","images/map13_berlin_scaleRev_orientMir_180.png","angry",1,13,13,"berlin","orientMir","scaleRev","180",NA,NA
"","","","","","html-slider-response",87,447508,"0.0-83.0","h12bc2ehmy",55,NA,"<div style=""width:500px;"">
                            <p style=""font-size:50px; font-weight:bold;""
                            >angry</p>
                            <div style=""width:240px; margin: auto;"">
                                <img src=""images/map26_Purples_scaleRev_orientMir_000.png"" style= ""width:200px""alt=""img"">
                            </div>
                        </div>",0.2775,"",0,"",NA,"","images/map26_Purples_scaleRev_orientMir_000.png","angry",1,26,26,"Purples","orientMir","scaleRev","000",NA,NA
"","","","","","html-slider-response",88,451391,"0.0-84.0","h12bc2ehmy",55,NA,"<div style=""width:500px;"">
                            <p style=""font-size:50px; font-weight:bold;""
                            >angry</p>
                            <div style=""width:240px; margin: auto;"">
                                <img src=""images/map26_Greys_scaleDef_orientDef_090.png"" style= ""width:200px""alt=""img"">
                            </div>
                        </div>",0.4425,"",0,"",NA,"","images/map26_Greys_scaleDef_orientDef_090.png","angry",1,26,26,"Greys","orientDef","scaleDef","090",NA,NA
"","","","","","html-slider-response",89,452989,"0.0-85.0","h12bc2ehmy",55,NA,"<div style=""width:500px;"">
                            <p style=""font-size:50px; font-weight:bold;""
                            >angry</p>
                            <div style=""width:240px; margin: auto;"">
                                <img src=""images/map10_PuOr_scaleRev_orientMir_000.png"" style= ""width:200px""alt=""img"">
                            </div>
                        </div>",0.5875,"",0,"",NA,"","images/map10_PuOr_scaleRev_orientMir_000.png","angry",1,10,10,"PuOr","orientMir","scaleRev","000",NA,NA
"","","","","","html-slider-response",90,454225,"0.0-86.0","h12bc2ehmy",55,NA,"<div style=""width:500px;"">
                            <p style=""font-size:50px; font-weight:bold;""
                            >angry</p>
                            <div style=""width:240px; margin: auto;"">
                                <img src=""images/map12_RdYlBu_scaleDef_orientDef_090.png"" style= ""width:200px""alt=""img"">
                            </div>
                        </div>",0.435,"",0,"",NA,"","images/map12_RdYlBu_scaleDef_orientDef_090.png","angry",1,12,12,"RdYlBu","orientDef","scaleDef","090",NA,NA
"","","","","","html-slider-response",91,457846,"0.0-87.0","h12bc2ehmy",55,NA,"<div style=""width:500px;"">
                            <p style=""font-size:50px; font-weight:bold;""
                            >angry</p>
                            <div style=""width:240px; margin: auto;"">
                                <img src=""images/map02_BuPu_scaleDef_orientMir_270.png"" style= ""width:200px""alt=""img"">
                            </div>
                        </div>",0.2125,"",0,"",NA,"","images/map02_BuPu_scaleDef_orientMir_270.png","angry",1,2,2,"BuPu","orientMir","scaleDef","270",NA,NA
"","","","","","html-slider-response",92,465830,"0.0-88.0","h12bc2ehmy",55,NA,"<div style=""width:500px;"">
                            <p style=""font-size:50px; font-weight:bold;""
                            >angry</p>
                            <div style=""width:240px; margin: auto;"">
                                <img src=""images/map10_PuOr_scaleDef_orientDef_270.png"" style= ""width:200px""alt=""img"">
                            </div>
                        </div>",0.515,"",0,"",NA,"","images/map10_PuOr_scaleDef_orientDef_270.png","angry",1,10,10,"PuOr","orientDef","scaleDef","270",NA,NA
"","","","","","html-slider-response",93,470662,"0.0-89.0","h12bc2ehmy",55,NA,"<div style=""width:500px;"">
                            <p style=""font-size:50px; font-weight:bold;""
                            >angry</p>
                            <div style=""width:240px; margin: auto;"">
                                <img src=""images/map07_YlGn_scaleRev_orientMir_000.png"" style= ""width:200px""alt=""img"">
                            </div>
                        </div>",0.175,"",0,"",NA,"","images/map07_YlGn_scaleRev_orientMir_000.png","angry",1,7,7,"YlGn","orientMir","scaleRev","000",NA,NA
"","","","","","html-slider-response",94,476503,"0.0-90.0","h12bc2ehmy",55,NA,"<div style=""width:500px;"">
                            <p style=""font-size:50px; font-weight:bold;""
                            >angry</p>
                            <div style=""width:240px; margin: auto;"">
                                <img src=""images/map27_Oranges_scaleDef_orientDef_090.png"" style= ""width:200px""alt=""img"">
                            </div>
                        </div>",0.7325,"",0,"",NA,"","images/map27_Oranges_scaleDef_orientDef_090.png","angry",1,27,27,"Oranges","orientDef","scaleDef","090",NA,NA
"","","","","","html-slider-response",95,478363,"0.0-91.0","h12bc2ehmy",55,NA,"<div style=""width:500px;"">
                            <p style=""font-size:50px; font-weight:bold;""
                            >angry</p>
                            <div style=""width:240px; margin: auto;"">
                                <img src=""images/map13_seismic_scaleRev_orientMir_000.png"" style= ""width:200px""alt=""img"">
                            </div>
                        </div>",0.675,"",0,"",NA,"","images/map13_seismic_scaleRev_orientMir_000.png","angry",1,13,13,"seismic","orientMir","scaleRev","000",NA,NA
"","","","","","html-slider-response",96,481563,"0.0-92.0","h12bc2ehmy",55,NA,"<div style=""width:500px;"">
                            <p style=""font-size:50px; font-weight:bold;""
                            >angry</p>
                            <div style=""width:240px; margin: auto;"">
                                <img src=""images/map07_YlGn_scaleDef_orientDef_270.png"" style= ""width:200px""alt=""img"">
                            </div>
                        </div>",0.135,"",0,"",NA,"","images/map07_YlGn_scaleDef_orientDef_270.png","angry",1,7,7,"YlGn","orientDef","scaleDef","270",NA,NA
"","","","","","html-slider-response",97,486162,"0.0-93.0","h12bc2ehmy",55,NA,"<div style=""width:500px;"">
                            <p style=""font-size:50px; font-weight:bold;""
                            >angry</p>
                            <div style=""width:240px; margin: auto;"">
                                <img src=""images/map13_managua_scaleDef_orientMir_270.png"" style= ""width:200px""alt=""img"">
                            </div>
                        </div>",0.56,"",0,"",NA,"","images/map13_managua_scaleDef_orientMir_270.png","angry",1,13,13,"managua","orientMir","scaleDef","270",NA,NA
"","","","","","html-slider-response",98,490836,"0.0-94.0","h12bc2ehmy",55,NA,"<div style=""width:500px;"">
                            <p style=""font-size:50px; font-weight:bold;""
                            >angry</p>
                            <div style=""width:240px; margin: auto;"">
                                <img src=""images/map27_Reds_scaleRev_orientMir_000.png"" style= ""width:200px""alt=""img"">
                            </div>
                        </div>",0.74,"",0,"",NA,"","images/map27_Reds_scaleRev_orientMir_000.png","angry",1,27,27,"Reds","orientMir","scaleRev","000",NA,NA
"","","","","","html-button-response",99,493069,"0.0-95.0","h12bc2ehmy",55,1731,"<p>Great Job! You've finished block 1.<br></br> You have 4 block(s) left to go.<br></br></p>",0.5,"",NA,"",NA,"","","",NA,NA,NA,"","","","",NA,NA
"","","","","","html-button-response",100,494311,"0.0-96.0","h12bc2ehmy",55,1242,"<p>In this block of trials, you will be asked to rate how much you associate each map with:</p > <p style = 'font-size:150%; font-weight: bold'>disgust</p><br></br>",0.5,"",NA,"",NA,"","","",NA,NA,NA,"","","","",NA,NA
"","","","","","html-slider-response",101,501590,"0.0-97.0","h12bc2ehmy",55,NA,"<div style=""width:500px;"">
                            <p style=""font-size:50px; font-weight:bold;""
                            >disgust</p>
                            <div style=""width:240px; margin: auto;"">
                                <img src=""images/map07_BuGn_scaleDef_orientDef_090.png"" style= ""width:200px""alt=""img"">
                            </div>
                        </div>",0.495,"",0,"",NA,"","images/map07_BuGn_scaleDef_orientDef_090.png","disgust",1,7,7,"BuGn","orientDef","scaleDef","090",NA,NA
"","","","","","html-slider-response",102,504005,"0.0-98.0","h12bc2ehmy",55,NA,"<div style=""width:500px;"">
                            <p style=""font-size:50px; font-weight:bold;""
                            >disgust</p>
                            <div style=""width:240px; margin: auto;"">
                                <img src=""images/map07_PiYG_scaleRev_orientMir_180.png"" style= ""width:200px""alt=""img"">
                            </div>
                        </div>",0.6125,"",0,"",NA,"","images/map07_PiYG_scaleRev_orientMir_180.png","disgust",1,7,7,"PiYG","orientMir","scaleRev","180",NA,NA
"","","","","","html-slider-response",103,505599,"0.0-99.0","h12bc2ehmy",55,NA,"<div style=""width:500px;"">
                            <p style=""font-size:50px; font-weight:bold;""
                            >disgust</p>
                            <div style=""width:240px; margin: auto;"">
                                <img src=""images/map02_PuRd_scaleRev_orientMir_000.png"" style= ""width:200px""alt=""img"">
                            </div>
                        </div>",0.255,"",0,"",NA,"","images/map02_PuRd_scaleRev_orientMir_000.png","disgust",1,2,2,"PuRd","orientMir","scaleRev","000",NA,NA
"","","","","","html-slider-response",104,507923,"0.0-100.0","h12bc2ehmy",55,NA,"<div style=""width:500px;"">
                            <p style=""font-size:50px; font-weight:bold;""
                            >disgust</p>
                            <div style=""width:240px; margin: auto;"">
                                <img src=""images/map15_vanimo_scaleRev_orientDef_180.png"" style= ""width:200px""alt=""img"">
                            </div>
                        </div>",0.065,"",0,"",NA,"","images/map15_vanimo_scaleRev_orientDef_180.png","disgust",1,15,15,"vanimo","orientDef","scaleRev","180",NA,NA
"","","","","","html-slider-response",105,510315,"0.0-101.0","h12bc2ehmy",55,NA,"<div style=""width:500px;"">
                            <p style=""font-size:50px; font-weight:bold;""
                            >disgust</p>
                            <div style=""width:240px; margin: auto;"">
                                <img src=""images/map07_PuBuGn_scaleRev_orientDef_000.png"" style= ""width:200px""alt=""img"">
                            </div>
                        </div>",0.1875,"",0,"",NA,"","images/map07_PuBuGn_scaleRev_orientDef_000.png","disgust",1,7,7,"PuBuGn","orientDef","scaleRev","000",NA,NA
"","","","","","html-slider-response",106,519440,"0.0-102.0","h12bc2ehmy",55,NA,"<div style=""width:500px;"">
                            <p style=""font-size:50px; font-weight:bold;""
                            >disgust</p>
                            <div style=""width:240px; margin: auto;"">
                                <img src=""images/map07_PRGn_scaleDef_orientMir_270.png"" style= ""width:200px""alt=""img"">
                            </div>
                        </div>",0.695,"",0,"",NA,"","images/map07_PRGn_scaleDef_orientMir_270.png","disgust",1,7,7,"PRGn","orientMir","scaleDef","270",NA,NA
"","","","","","html-slider-response",107,521447,"0.0-103.0","h12bc2ehmy",55,NA,"<div style=""width:500px;"">
                            <p style=""font-size:50px; font-weight:bold;""
                            >disgust</p>
                            <div style=""width:240px; margin: auto;"">
                                <img src=""images/map05_BuPu_scaleRev_orientDef_000.png"" style= ""width:200px""alt=""img"">
                            </div>
                        </div>",0.035,"",0,"",NA,"","images/map05_BuPu_scaleRev_orientDef_000.png","disgust",1,5,5,"BuPu","orientDef","scaleRev","000",NA,NA
"","","","","","html-slider-response",108,522966,"0.0-104.0","h12bc2ehmy",55,NA,"<div style=""width:500px;"">
                            <p style=""font-size:50px; font-weight:bold;""
                            >disgust</p>
                            <div style=""width:240px; margin: auto;"">
                                <img src=""images/map05_GnBu_scaleDef_orientDef_090.png"" style= ""width:200px""alt=""img"">
                            </div>
                        </div>",0.1175,"",0,"",NA,"","images/map05_GnBu_scaleDef_orientDef_090.png","disgust",1,5,5,"GnBu","orientDef","scaleDef","090",NA,NA
"","","","","","html-slider-response",109,524618,"0.0-105.0","h12bc2ehmy",55,NA,"<div style=""width:500px;"">
                            <p style=""font-size:50px; font-weight:bold;""
                            >disgust</p>
                            <div style=""width:240px; margin: auto;"">
                                <img src=""images/map13_managua_scaleDef_orientMir_270.png"" style= ""width:200px""alt=""img"">
                            </div>
                        </div>",0.4875,"",0,"",NA,"","images/map13_managua_scaleDef_orientMir_270.png","disgust",1,13,13,"managua","orientMir","scaleDef","270",NA,NA
"","","","","","html-slider-response",110,528797,"0.0-106.0","h12bc2ehmy",55,NA,"<div style=""width:500px;"">
                            <p style=""font-size:50px; font-weight:bold;""
                            >disgust</p>
                            <div style=""width:240px; margin: auto;"">
                                <img src=""images/map10_RdGy_scaleRev_orientMir_180.png"" style= ""width:200px""alt=""img"">
                            </div>
                        </div>",0.595,"",0,"",NA,"","images/map10_RdGy_scaleRev_orientMir_180.png","disgust",1,10,10,"RdGy","orientMir","scaleRev","180",NA,NA
"","","","","","html-slider-response",111,531244,"0.0-107.0","h12bc2ehmy",55,NA,"<div style=""width:500px;"">
                            <p style=""font-size:50px; font-weight:bold;""
                            >disgust</p>
                            <div style=""width:240px; margin: auto;"">
                                <img src=""images/map12_Spectral_scaleDef_orientMir_090.png"" style= ""width:200px""alt=""img"">
                            </div>
                        </div>",0.4975,"",0,"",NA,"","images/map12_Spectral_scaleDef_orientMir_090.png","disgust",1,12,12,"Spectral","orientMir","scaleDef","090",NA,NA
"","","","","","html-slider-response",112,533901,"0.0-108.0","h12bc2ehmy",55,NA,"<div style=""width:500px;"">
                            <p style=""font-size:50px; font-weight:bold;""
                            >disgust</p>
                            <div style=""width:240px; margin: auto;"">
                                <img src=""images/map23_plasma_scaleRev_orientDef_180.png"" style= ""width:200px""alt=""img"">
                            </div>
                        </div>",0.2375,"",0,"",NA,"","images/map23_plasma_scaleRev_orientDef_180.png","disgust",1,23,23,"plasma","orientDef","scaleRev","180",NA,NA
"","","","","","html-slider-response",113,539647,"0.0-109.0","h12bc2ehmy",55,NA,"<div style=""width:500px;"">
                            <p style=""font-size:50px; font-weight:bold;""
                            >disgust</p>
                            <div style=""width:240px; margin: auto;"">
                                <img src=""images/map07_YlGn_scaleRev_orientMir_000.png"" style= ""width:200px""alt=""img"">
                            </div>
                        </div>",0.3275,"",0,"",NA,"","images/map07_YlGn_scaleRev_orientMir_000.png","disgust",1,7,7,"YlGn","orientMir","scaleRev","000",NA,NA
"","","","","","html-slider-response",114,540155,"0.0-110.0","h12bc2ehmy",55,NA,"<div style=""width:500px;"">
                            <p style=""font-size:50px; font-weight:bold;""
                            >disgust</p>
                            <div style=""width:240px; margin: auto;"">
                                <img src=""images/map27_Reds_scaleDef_orientDef_270.png"" style= ""width:200px""alt=""img"">
                            </div>
                        </div>",0.325,"",0,"",NA,"","images/map27_Reds_scaleDef_orientDef_270.png","disgust",1,27,27,"Reds","orientDef","scaleDef","270",NA,NA
"","","","","","html-slider-response",115,547764,"0.0-111.0","h12bc2ehmy",55,NA,"<div style=""width:500px;"">
                            <p style=""font-size:50px; font-weight:bold;""
                            >disgust</p>
                            <div style=""width:240px; margin: auto;"">
                                <img src=""images/map05_PuBu_scaleDef_orientDef_270.png"" style= ""width:200px""alt=""img"">
                            </div>
                        </div>",0.0025,"",0,"",NA,"","images/map05_PuBu_scaleDef_orientDef_270.png","disgust",1,5,5,"PuBu","orientDef","scaleDef","270",NA,NA
"","","","","","html-slider-response",116,549596,"0.0-112.0","h12bc2ehmy",55,NA,"<div style=""width:500px;"">
                            <p style=""font-size:50px; font-weight:bold;""
                            >disgust</p>
                            <div style=""width:240px; margin: auto;"">
                                <img src=""images/map26_Purples_scaleDef_orientDef_270.png"" style= ""width:200px""alt=""img"">
                            </div>
                        </div>",0.235,"",0,"",NA,"","images/map26_Purples_scaleDef_orientDef_270.png","disgust",1,26,26,"Purples","orientDef","scaleDef","270",NA,NA
"","","","","","html-slider-response",117,552377,"0.0-113.0","h12bc2ehmy",55,NA,"<div style=""width:500px;"">
                            <p style=""font-size:50px; font-weight:bold;""
                            >disgust</p>
                            <div style=""width:240px; margin: auto;"">
                                <img src=""images/map02_OrRd_scaleRev_orientDef_180.png"" style= ""width:200px""alt=""img"">
                            </div>
                        </div>",0.62,"",0,"",NA,"","images/map02_OrRd_scaleRev_orientDef_180.png","disgust",1,2,2,"OrRd","orientDef","scaleRev","180",NA,NA
"","","","","","html-slider-response",118,559129,"0.0-114.0","h12bc2ehmy",55,NA,"<div style=""width:500px;"">
                            <p style=""font-size:50px; font-weight:bold;""
                            >disgust</p>
                            <div style=""width:240px; margin: auto;"">
                                <img src=""images/map12_RdYlBu_scaleDef_orientDef_090.png"" style= ""width:200px""alt=""img"">
                            </div>
                        </div>",0.765,"",0,"",NA,"","images/map12_RdYlBu_scaleDef_orientDef_090.png","disgust",1,12,12,"RdYlBu","orientDef","scaleDef","090",NA,NA
"","","","","","html-slider-response",119,569659,"0.0-115.0","h12bc2ehmy",55,NA,"<div style=""width:500px;"">
                            <p style=""font-size:50px; font-weight:bold;""
                            >disgust</p>
                            <div style=""width:240px; margin: auto;"">
                                <img src=""images/map13_seismic_scaleRev_orientMir_000.png"" style= ""width:200px""alt=""img"">
                            </div>
                        </div>",0.505,"",0,"",NA,"","images/map13_seismic_scaleRev_orientMir_000.png","disgust",1,13,13,"seismic","orientMir","scaleRev","000",NA,NA
"","","","","","html-slider-response",120,573767,"0.0-116.0","h12bc2ehmy",55,NA,"<div style=""width:500px;"">
                            <p style=""font-size:50px; font-weight:bold;""
                            >disgust</p>
                            <div style=""width:240px; margin: auto;"">
                                <img src=""images/map05_PuBu_scaleRev_orientMir_000.png"" style= ""width:200px""alt=""img"">
                            </div>
                        </div>",0.1125,"",0,"",NA,"","images/map05_PuBu_scaleRev_orientMir_000.png","disgust",1,5,5,"PuBu","orientMir","scaleRev","000",NA,NA
"","","","","","html-slider-response",121,582930,"0.0-117.0","h12bc2ehmy",55,NA,"<div style=""width:500px;"">
                            <p style=""font-size:50px; font-weight:bold;""
                            >disgust</p>
                            <div style=""width:240px; margin: auto;"">
                                <img src=""images/map13_coolwarm_scaleRev_orientDef_000.png"" style= ""width:200px""alt=""img"">
                            </div>
                        </div>",0.455,"",0,"",NA,"","images/map13_coolwarm_scaleRev_orientDef_000.png","disgust",1,13,13,"coolwarm","orientDef","scaleRev","000",NA,NA
"","","","","","html-slider-response",122,586995,"0.0-118.0","h12bc2ehmy",55,NA,"<div style=""width:500px;"">
                            <p style=""font-size:50px; font-weight:bold;""
                            >disgust</p>
                            <div style=""width:240px; margin: auto;"">
                                <img src=""images/map05_PuBuGn_scaleDef_orientMir_270.png"" style= ""width:200px""alt=""img"">
                            </div>
                        </div>",0.06,"",0,"",NA,"","images/map05_PuBuGn_scaleDef_orientMir_270.png","disgust",1,5,5,"PuBuGn","orientMir","scaleDef","270",NA,NA
"","","","","","html-slider-response",123,593196,"0.0-119.0","h12bc2ehmy",55,NA,"<div style=""width:500px;"">
                            <p style=""font-size:50px; font-weight:bold;""
                            >disgust</p>
                            <div style=""width:240px; margin: auto;"">
                                <img src=""images/map27_Greens_scaleRev_orientDef_000.png"" style= ""width:200px""alt=""img"">
                            </div>
                        </div>",0.325,"",0,"",NA,"","images/map27_Greens_scaleRev_orientDef_000.png","disgust",1,27,27,"Greens","orientDef","scaleRev","000",NA,NA
"","","","","","html-slider-response",124,607910,"0.0-120.0","h12bc2ehmy",55,NA,"<div style=""width:500px;"">
                            <p style=""font-size:50px; font-weight:bold;""
                            >disgust</p>
                            <div style=""width:240px; margin: auto;"">
                                <img src=""images/map27_YlOrBr_scaleRev_orientMir_180.png"" style= ""width:200px""alt=""img"">
                            </div>
                        </div>",0.5225,"",0,"",NA,"","images/map27_YlOrBr_scaleRev_orientMir_180.png","disgust",1,27,27,"YlOrBr","orientMir","scaleRev","180",NA,NA
"","","","","","html-slider-response",125,614410,"0.0-121.0","h12bc2ehmy",55,NA,"<div style=""width:500px;"">
                            <p style=""font-size:50px; font-weight:bold;""
                            >disgust</p>
                            <div style=""width:240px; margin: auto;"">
                                <img src=""images/map13_bwr_scaleRev_orientDef_180.png"" style= ""width:200px""alt=""img"">
                            </div>
                        </div>",0.6575,"",0,"",NA,"","images/map13_bwr_scaleRev_orientDef_180.png","disgust",1,13,13,"bwr","orientDef","scaleRev","180",NA,NA
"","","","","","html-slider-response",126,617340,"0.0-122.0","h12bc2ehmy",55,NA,"<div style=""width:500px;"">
                            <p style=""font-size:50px; font-weight:bold;""
                            >disgust</p>
                            <div style=""width:240px; margin: auto;"">
                                <img src=""images/map27_Oranges_scaleRev_orientDef_180.png"" style= ""width:200px""alt=""img"">
                            </div>
                        </div>",0.535,"",0,"",NA,"","images/map27_Oranges_scaleRev_orientDef_180.png","disgust",1,27,27,"Oranges","orientDef","scaleRev","180",NA,NA
"","","","","","html-slider-response",127,621610,"0.0-123.0","h12bc2ehmy",55,NA,"<div style=""width:500px;"">
                            <p style=""font-size:50px; font-weight:bold;""
                            >disgust</p>
                            <div style=""width:240px; margin: auto;"">
                                <img src=""images/map10_RdBu_scaleDef_orientMir_270.png"" style= ""width:200px""alt=""img"">
                            </div>
                        </div>",0.3675,"",0,"",NA,"","images/map10_RdBu_scaleDef_orientMir_270.png","disgust",1,10,10,"RdBu","orientMir","scaleDef","270",NA,NA
"","","","","","html-slider-response",128,623547,"0.0-124.0","h12bc2ehmy",55,NA,"<div style=""width:500px;"">
                            <p style=""font-size:50px; font-weight:bold;""
                            >disgust</p>
                            <div style=""width:240px; margin: auto;"">
                                <img src=""images/map05_YlGnBu_scaleDef_orientMir_090.png"" style= ""width:200px""alt=""img"">
                            </div>
                        </div>",0,"",0,"",NA,"","images/map05_YlGnBu_scaleDef_orientMir_090.png","disgust",1,5,5,"YlGnBu","orientMir","scaleDef","090",NA,NA
"","","","","","html-slider-response",129,626782,"0.0-125.0","h12bc2ehmy",55,NA,"<div style=""width:500px;"">
                            <p style=""font-size:50px; font-weight:bold;""
                            >disgust</p>
                            <div style=""width:240px; margin: auto;"">
                                <img src=""images/map12_coolwarm_scaleDef_orientMir_270.png"" style= ""width:200px""alt=""img"">
                            </div>
                        </div>",0.63,"",0,"",NA,"","images/map12_coolwarm_scaleDef_orientMir_270.png","disgust",1,12,12,"coolwarm","orientMir","scaleDef","270",NA,NA
"","","","","","html-slider-response",130,628069,"0.0-126.0","h12bc2ehmy",55,NA,"<div style=""width:500px;"">
                            <p style=""font-size:50px; font-weight:bold;""
                            >disgust</p>
                            <div style=""width:240px; margin: auto;"">
                                <img src=""images/map12_RdYlBu_scaleRev_orientDef_180.png"" style= ""width:200px""alt=""img"">
                            </div>
                        </div>",0.67,"",0,"",NA,"","images/map12_RdYlBu_scaleRev_orientDef_180.png","disgust",1,12,12,"RdYlBu","orientDef","scaleRev","180",NA,NA
"","","","","","html-slider-response",131,628645,"0.0-127.0","h12bc2ehmy",55,NA,"<div style=""width:500px;"">
                            <p style=""font-size:50px; font-weight:bold;""
                            >disgust</p>
                            <div style=""width:240px; margin: auto;"">
                                <img src=""images/map10_BrBG_scaleRev_orientDef_180.png"" style= ""width:200px""alt=""img"">
                            </div>
                        </div>",0.72,"",0,"",NA,"","images/map10_BrBG_scaleRev_orientDef_180.png","disgust",1,10,10,"BrBG","orientDef","scaleRev","180",NA,NA
"","","","","","html-slider-response",132,631098,"0.0-128.0","h12bc2ehmy",55,NA,"<div style=""width:500px;"">
                            <p style=""font-size:50px; font-weight:bold;""
                            >disgust</p>
                            <div style=""width:240px; margin: auto;"">
                                <img src=""images/map12_RdBu_scaleRev_orientDef_000.png"" style= ""width:200px""alt=""img"">
                            </div>
                        </div>",0.68,"",0,"",NA,"","images/map12_RdBu_scaleRev_orientDef_000.png","disgust",1,12,12,"RdBu","orientDef","scaleRev","000",NA,NA
"","","","","","html-slider-response",133,635859,"0.0-129.0","h12bc2ehmy",55,NA,"<div style=""width:500px;"">
                            <p style=""font-size:50px; font-weight:bold;""
                            >disgust</p>
                            <div style=""width:240px; margin: auto;"">
                                <img src=""images/map02_OrRd_scaleDef_orientDef_090.png"" style= ""width:200px""alt=""img"">
                            </div>
                        </div>",0.575,"",0,"",NA,"","images/map02_OrRd_scaleDef_orientDef_090.png","disgust",1,2,2,"OrRd","orientDef","scaleDef","090",NA,NA
"","","","","","html-slider-response",134,642875,"0.0-130.0","h12bc2ehmy",55,NA,"<div style=""width:500px;"">
                            <p style=""font-size:50px; font-weight:bold;""
                            >disgust</p>
                            <div style=""width:240px; margin: auto;"">
                                <img src=""images/map13_seismic_scaleDef_orientDef_270.png"" style= ""width:200px""alt=""img"">
                            </div>
                        </div>",0.4925,"",0,"",NA,"","images/map13_seismic_scaleDef_orientDef_270.png","disgust",1,13,13,"seismic","orientDef","scaleDef","270",NA,NA
"","","","","","html-slider-response",135,646876,"0.0-131.0","h12bc2ehmy",55,NA,"<div style=""width:500px;"">
                            <p style=""font-size:50px; font-weight:bold;""
                            >disgust</p>
                            <div style=""width:240px; margin: auto;"">
                                <img src=""images/map10_PuOr_scaleDef_orientDef_270.png"" style= ""width:200px""alt=""img"">
                            </div>
                        </div>",0.22,"",0,"",NA,"","images/map10_PuOr_scaleDef_orientDef_270.png","disgust",1,10,10,"PuOr","orientDef","scaleDef","270",NA,NA
"","","","","","html-slider-response",136,649921,"0.0-132.0","h12bc2ehmy",55,NA,"<div style=""width:500px;"">
                            <p style=""font-size:50px; font-weight:bold;""
                            >disgust</p>
                            <div style=""width:240px; margin: auto;"">
                                <img src=""images/map12_RdYlGn_scaleDef_orientDef_270.png"" style= ""width:200px""alt=""img"">
                            </div>
                        </div>",0.1275,"",0,"",NA,"","images/map12_RdYlGn_scaleDef_orientDef_270.png","disgust",1,12,12,"RdYlGn","orientDef","scaleDef","270",NA,NA
"","","","","","html-slider-response",137,651654,"0.0-133.0","h12bc2ehmy",55,NA,"<div style=""width:500px;"">
                            <p style=""font-size:50px; font-weight:bold;""
                            >disgust</p>
                            <div style=""width:240px; margin: auto;"">
                                <img src=""images/map23_plasma_scaleDef_orientDef_090.png"" style= ""width:200px""alt=""img"">
                            </div>
                        </div>",0.0275,"",0,"",NA,"","images/map23_plasma_scaleDef_orientDef_090.png","disgust",1,23,23,"plasma","orientDef","scaleDef","090",NA,NA
"","","","","","html-slider-response",138,655819,"0.0-134.0","h12bc2ehmy",55,NA,"<div style=""width:500px;"">
                            <p style=""font-size:50px; font-weight:bold;""
                            >disgust</p>
                            <div style=""width:240px; margin: auto;"">
                                <img src=""images/map23_inferno_scaleRev_orientMir_000.png"" style= ""width:200px""alt=""img"">
                            </div>
                        </div>",0.1375,"",0,"",NA,"","images/map23_inferno_scaleRev_orientMir_000.png","disgust",1,23,23,"inferno","orientMir","scaleRev","000",NA,NA
"","","","","","html-slider-response",139,664560,"0.0-135.0","h12bc2ehmy",55,NA,"<div style=""width:500px;"">
                            <p style=""font-size:50px; font-weight:bold;""
                            >disgust</p>
                            <div style=""width:240px; margin: auto;"">
                                <img src=""images/map15_gist_earth_scaleRev_orientMir_000.png"" style= ""width:200px""alt=""img"">
                            </div>
                        </div>",0.36,"",0,"",NA,"","images/map15_gist_earth_scaleRev_orientMir_000.png","disgust",1,15,15,"gist","scaleRev","earth","orientMir",NA,NA
"","","","","","html-slider-response",140,665601,"0.0-136.0","h12bc2ehmy",55,NA,"<div style=""width:500px;"">
                            <p style=""font-size:50px; font-weight:bold;""
                            >disgust</p>
                            <div style=""width:240px; margin: auto;"">
                                <img src=""images/map07_PiYG_scaleDef_orientMir_090.png"" style= ""width:200px""alt=""img"">
                            </div>
                        </div>",0.3525,"",0,"",NA,"","images/map07_PiYG_scaleDef_orientMir_090.png","disgust",1,7,7,"PiYG","orientMir","scaleDef","090",NA,NA
"","","","","","html-button-response",141,667144,"0.0-137.0","h12bc2ehmy",55,1040,"<p>You are doing great!<br></br> You are halway done with the current block. When you are ready to continue, click the 'Continue' button.</p>",0.5,"",NA,"",NA,"","","",NA,NA,NA,"","","","",NA,NA
"","","","","","html-slider-response",142,672090,"0.0-138.0","h12bc2ehmy",55,NA,"<div style=""width:500px;"">
                            <p style=""font-size:50px; font-weight:bold;""
                            >disgust</p>
                            <div style=""width:240px; margin: auto;"">
                                <img src=""images/map15_vanimo_scaleDef_orientDef_090.png"" style= ""width:200px""alt=""img"">
                            </div>
                        </div>",0.2025,"",0,"",NA,"","images/map15_vanimo_scaleDef_orientDef_090.png","disgust",1,15,15,"vanimo","orientDef","scaleDef","090",NA,NA
"","","","","","html-slider-response",143,674043,"0.0-139.0","h12bc2ehmy",55,NA,"<div style=""width:500px;"">
                            <p style=""font-size:50px; font-weight:bold;""
                            >disgust</p>
                            <div style=""width:240px; margin: auto;"">
                                <img src=""images/map23_viridis_scaleRev_orientDef_000.png"" style= ""width:200px""alt=""img"">
                            </div>
                        </div>",0.07,"",0,"",NA,"","images/map23_viridis_scaleRev_orientDef_000.png","disgust",1,23,23,"viridis","orientDef","scaleRev","000",NA,NA
"","","","","","html-slider-response",144,680221,"0.0-140.0","h12bc2ehmy",55,NA,"<div style=""width:500px;"">
                            <p style=""font-size:50px; font-weight:bold;""
                            >disgust</p>
                            <div style=""width:240px; margin: auto;"">
                                <img src=""images/map15_turbo_scaleDef_orientMir_090.png"" style= ""width:200px""alt=""img"">
                            </div>
                        </div>",0.725,"",0,"",NA,"","images/map15_turbo_scaleDef_orientMir_090.png","disgust",1,15,15,"turbo","orientMir","scaleDef","090",NA,NA
"","","","","","html-slider-response",145,687009,"0.0-141.0","h12bc2ehmy",55,NA,"<div style=""width:500px;"">
                            <p style=""font-size:50px; font-weight:bold;""
                            >disgust</p>
                            <div style=""width:240px; margin: auto;"">
                                <img src=""images/map07_YlGn_scaleDef_orientDef_270.png"" style= ""width:200px""alt=""img"">
                            </div>
                        </div>",0.5125,"",0,"",NA,"","images/map07_YlGn_scaleDef_orientDef_270.png","disgust",1,7,7,"YlGn","orientDef","scaleDef","270",NA,NA
"","","","","","html-slider-response",146,690416,"0.0-142.0","h12bc2ehmy",55,NA,"<div style=""width:500px;"">
                            <p style=""font-size:50px; font-weight:bold;""
                            >disgust</p>
                            <div style=""width:240px; margin: auto;"">
                                <img src=""images/map07_BuGn_scaleRev_orientDef_180.png"" style= ""width:200px""alt=""img"">
                            </div>
                        </div>",0.075,"",0,"",NA,"","images/map07_BuGn_scaleRev_orientDef_180.png","disgust",1,7,7,"BuGn","orientDef","scaleRev","180",NA,NA
"","","","","","html-slider-response",147,694260,"0.0-143.0","h12bc2ehmy",55,NA,"<div style=""width:500px;"">
                            <p style=""font-size:50px; font-weight:bold;""
                            >disgust</p>
                            <div style=""width:240px; margin: auto;"">
                                <img src=""images/map26_Purples_scaleRev_orientMir_000.png"" style= ""width:200px""alt=""img"">
                            </div>
                        </div>",0.16,"",0,"",NA,"","images/map26_Purples_scaleRev_orientMir_000.png","disgust",1,26,26,"Purples","orientMir","scaleRev","000",NA,NA
"","","","","","html-slider-response",148,696642,"0.0-144.0","h12bc2ehmy",55,NA,"<div style=""width:500px;"">
                            <p style=""font-size:50px; font-weight:bold;""
                            >disgust</p>
                            <div style=""width:240px; margin: auto;"">
                                <img src=""images/map10_PRGn_scaleRev_orientDef_000.png"" style= ""width:200px""alt=""img"">
                            </div>
                        </div>",0.44,"",0,"",NA,"","images/map10_PRGn_scaleRev_orientDef_000.png","disgust",1,10,10,"PRGn","orientDef","scaleRev","000",NA,NA
"","","","","","html-slider-response",149,698594,"0.0-145.0","h12bc2ehmy",55,NA,"<div style=""width:500px;"">
                            <p style=""font-size:50px; font-weight:bold;""
                            >disgust</p>
                            <div style=""width:240px; margin: auto;"">
                                <img src=""images/map10_RdGy_scaleDef_orientMir_090.png"" style= ""width:200px""alt=""img"">
                            </div>
                        </div>",0.6475,"",0,"",NA,"","images/map10_RdGy_scaleDef_orientMir_090.png","disgust",1,10,10,"RdGy","orientMir","scaleDef","090",NA,NA
"","","","","","html-slider-response",150,707350,"0.0-146.0","h12bc2ehmy",55,NA,"<div style=""width:500px;"">
                            <p style=""font-size:50px; font-weight:bold;""
                            >disgust</p>
                            <div style=""width:240px; margin: auto;"">
                                <img src=""images/map10_BrBG_scaleDef_orientDef_090.png"" style= ""width:200px""alt=""img"">
                            </div>
                        </div>",0.505,"",0,"",NA,"","images/map10_BrBG_scaleDef_orientDef_090.png","disgust",1,10,10,"BrBG","orientDef","scaleDef","090",NA,NA
"","","","","","html-slider-response",151,713513,"0.0-147.0","h12bc2ehmy",55,NA,"<div style=""width:500px;"">
                            <p style=""font-size:50px; font-weight:bold;""
                            >disgust</p>
                            <div style=""width:240px; margin: auto;"">
                                <img src=""images/map27_Oranges_scaleDef_orientDef_090.png"" style= ""width:200px""alt=""img"">
                            </div>
                        </div>",0.66,"",0,"",NA,"","images/map27_Oranges_scaleDef_orientDef_090.png","disgust",1,27,27,"Oranges","orientDef","scaleDef","090",NA,NA
"","","","","","html-slider-response",152,715042,"0.0-148.0","h12bc2ehmy",55,NA,"<div style=""width:500px;"">
                            <p style=""font-size:50px; font-weight:bold;""
                            >disgust</p>
                            <div style=""width:240px; margin: auto;"">
                                <img src=""images/map15_gist_earth_scaleDef_orientDef_270.png"" style= ""width:200px""alt=""img"">
                            </div>
                        </div>",0.34,"",0,"",NA,"","images/map15_gist_earth_scaleDef_orientDef_270.png","disgust",1,15,15,"gist","scaleDef","earth","orientDef",NA,NA
"","","","","","html-slider-response",153,717127,"0.0-149.0","h12bc2ehmy",55,NA,"<div style=""width:500px;"">
                            <p style=""font-size:50px; font-weight:bold;""
                            >disgust</p>
                            <div style=""width:240px; margin: auto;"">
                                <img src=""images/map26_Blues_scaleDef_orientMir_090.png"" style= ""width:200px""alt=""img"">
                            </div>
                        </div>",0.0225,"",0,"",NA,"","images/map26_Blues_scaleDef_orientMir_090.png","disgust",1,26,26,"Blues","orientMir","scaleDef","090",NA,NA
"","","","","","html-slider-response",154,724113,"0.0-150.0","h12bc2ehmy",55,NA,"<div style=""width:500px;"">
                            <p style=""font-size:50px; font-weight:bold;""
                            >disgust</p>
                            <div style=""width:240px; margin: auto;"">
                                <img src=""images/map26_Greys_scaleRev_orientDef_180.png"" style= ""width:200px""alt=""img"">
                            </div>
                        </div>",0.35,"",0,"",NA,"","images/map26_Greys_scaleRev_orientDef_180.png","disgust",1,26,26,"Greys","orientDef","scaleRev","180",NA,NA
"","","","","","html-slider-response",155,726151,"0.0-151.0","h12bc2ehmy",55,NA,"<div style=""width:500px;"">
                            <p style=""font-size:50px; font-weight:bold;""
                            >disgust</p>
                            <div style=""width:240px; margin: auto;"">
                                <img src=""images/map23_magma_scaleRev_orientMir_180.png"" style= ""width:200px""alt=""img"">
                            </div>
                        </div>",0.175,"",0,"",NA,"","images/map23_magma_scaleRev_orientMir_180.png","disgust",1,23,23,"magma","orientMir","scaleRev","180",NA,NA
"","","","","","html-slider-response",156,729673,"0.0-152.0","h12bc2ehmy",55,NA,"<div style=""width:500px;"">
                            <p style=""font-size:50px; font-weight:bold;""
                            >disgust</p>
                            <div style=""width:240px; margin: auto;"">
                                <img src=""images/map15_turbo_scaleRev_orientMir_180.png"" style= ""width:200px""alt=""img"">
                            </div>
                        </div>",0.6925,"",0,"",NA,"","images/map15_turbo_scaleRev_orientMir_180.png","disgust",1,15,15,"turbo","orientMir","scaleRev","180",NA,NA
"","","","","","html-slider-response",157,732325,"0.0-153.0","h12bc2ehmy",55,NA,"<div style=""width:500px;"">
                            <p style=""font-size:50px; font-weight:bold;""
                            >disgust</p>
                            <div style=""width:240px; margin: auto;"">
                                <img src=""images/map05_GnBu_scaleRev_orientDef_180.png"" style= ""width:200px""alt=""img"">
                            </div>
                        </div>",0.04,"",0,"",NA,"","images/map05_GnBu_scaleRev_orientDef_180.png","disgust",1,5,5,"GnBu","orientDef","scaleRev","180",NA,NA
"","","","","","html-slider-response",158,735658,"0.0-154.0","h12bc2ehmy",55,NA,"<div style=""width:500px;"">
                            <p style=""font-size:50px; font-weight:bold;""
                            >disgust</p>
                            <div style=""width:240px; margin: auto;"">
                                <img src=""images/map15_managua_scaleRev_orientDef_000.png"" style= ""width:200px""alt=""img"">
                            </div>
                        </div>",0.53,"",0,"",NA,"","images/map15_managua_scaleRev_orientDef_000.png","disgust",1,15,15,"managua","orientDef","scaleRev","000",NA,NA
"","","","","","html-slider-response",159,737110,"0.0-155.0","h12bc2ehmy",55,NA,"<div style=""width:500px;"">
                            <p style=""font-size:50px; font-weight:bold;""
                            >disgust</p>
                            <div style=""width:240px; margin: auto;"">
                                <img src=""images/map15_viridis_scaleDef_orientMir_270.png"" style= ""width:200px""alt=""img"">
                            </div>
                        </div>",0.115,"",0,"",NA,"","images/map15_viridis_scaleDef_orientMir_270.png","disgust",1,15,15,"viridis","orientMir","scaleDef","270",NA,NA
"","","","","","html-slider-response",160,740374,"0.0-156.0","h12bc2ehmy",55,NA,"<div style=""width:500px;"">
                            <p style=""font-size:50px; font-weight:bold;""
                            >disgust</p>
                            <div style=""width:240px; margin: auto;"">
                                <img src=""images/map02_RdPu_scaleRev_orientMir_180.png"" style= ""width:200px""alt=""img"">
                            </div>
                        </div>",0.18,"",0,"",NA,"","images/map02_RdPu_scaleRev_orientMir_180.png","disgust",1,2,2,"RdPu","orientMir","scaleRev","180",NA,NA
"","","","","","html-slider-response",161,744627,"0.0-157.0","h12bc2ehmy",55,NA,"<div style=""width:500px;"">
                            <p style=""font-size:50px; font-weight:bold;""
                            >disgust</p>
                            <div style=""width:240px; margin: auto;"">
                                <img src=""images/map02_YlOrRd_scaleRev_orientDef_000.png"" style= ""width:200px""alt=""img"">
                            </div>
                        </div>",0.4875,"",0,"",NA,"","images/map02_YlOrRd_scaleRev_orientDef_000.png","disgust",1,2,2,"YlOrRd","orientDef","scaleRev","000",NA,NA
"","","","","","html-slider-response",162,748360,"0.0-158.0","h12bc2ehmy",55,NA,"<div style=""width:500px;"">
                            <p style=""font-size:50px; font-weight:bold;""
                            >disgust</p>
                            <div style=""width:240px; margin: auto;"">
