"success","timeout","failed_images","failed_audio","failed_video","trial_type","trial_index","time_elapsed","internal_node_id","subject_id","condition_num","rt","stimulus","response","question_order","slider_start","practiceTrial","practiceTrialNum","correct","image_path","concept","repetition","map_id","map_num","scale_name","orientation_code","mapping_code","rotation_code","ishihara_plate","correct_response"
"true","false","[]","[]","[]","preload",0,385,"0.0-0.0","l0520l2kpy",35,NA,"",NA,"",NA,"",NA,"","","",NA,NA,NA,"","","","",NA,NA
"","","","","","html-button-response",1,1521,"0.0-1.0","l0520l2kpy",35,1134,"Welcome to our experiment!<p>At the bottom of this screen, you will see a button that says ""Begin Experiment"".<br>Please only click that button when you are ready to complete the 30 minute experiment in one sitting.</p><p> Once you click that button, it will not be possible to restart the experiment.",0.5,"",NA,"",NA,"","","",NA,NA,NA,"","","","",NA,NA
"true","","","","","fullscreen",2,4122,"0.0-2.0","l0520l2kpy",35,1598,"",NA,"",NA,"",NA,"","","",NA,NA,NA,"","","","",NA,NA
"","","","","","survey-multi-select",3,48639,"0.0-3.0","l0520l2kpy",35,44514,"",NA,"[0]",NA,"",NA,"","","",NA,NA,NA,"","","","",NA,NA
"","","","","","html-button-response",4,54020,"0.0-4.0","l0520l2kpy",35,5380,"Welcome! <p> This experiment involves two parts: demographic information, followed by the experimental task.<p> It will take about 30 minutes to complete both parts.",0.5,"",NA,"",NA,"","","",NA,NA,NA,"","","","",NA,NA
"","","","","","survey-text",5,67322,"0.0-5.0","l0520l2kpy",35,13293,"",NA,"",NA,"",NA,"","","",NA,NA,NA,"","","","",NA,NA
"","","","","","html-slider-response",6,155937,"0.0-6.0","l0520l2kpy",35,88612,"<div style='text-align:left; font-size:20px; line-height:25px; width: 1000px;'>
                                During this experiment you will be asked to rate how much you associate maps with                    different concepts.<br> Below, you can see some examples of the maps you will be asked to rate. Above the maps
                    is the list of concepts.<br>You will be asked                    to rate how much you associate each map with each concept on a scale from 'not at all' to 'very much' like the
                    one below. <br><br>
                    Now, please look at the list of concepts and maps. For each concept, think about the map you associate 'very
                    much' with the concept.<br>                     When you see that map during the experiment, please rate it near the 'very much' endpoint of the
                    scale.<br>Now, please think about which map you associate 'not at all'                     with each concept. When you see that map during the experiment, please rate it near the 'not at all' endpoint
                    of the scale.<br>
                    Please use the full range of the scale. That is, if a map is somewhat associated with the concept, you would
                    click partway between the middle point and right side of the scale.                    You will be asked to rate each map for a given concept before moving on to the next concept.<br>Press the
                    'Continue' button for instructions on how to use the slider.                    <br>
                </div>

                <div style=""width: 500px; margin: 0 auto;"">
                    <!-- Centered text paragraphs -->
                    <div style=""text-align: center; width: 500px;"">
                        <p style=""font-size:25px; line-height:15px;"">
                            disgust&nbsp;&nbsp;&nbsp;&nbsp;
                            fearful&nbsp;&nbsp;&nbsp;&nbsp;
                            happy&nbsp;&nbsp;&nbsp;&nbsp;
                            angry&nbsp;&nbsp;&nbsp;&nbsp;
                            sad
                        </p>
                        <!-- <p style=""font-size:20px; line-height:15px;"">fearful</p>
                        <p style=""font-size:20px;line-height:15px;"">happy</p>
                        <p style=""font-size:20px;line-height:15px;"">angry</p>
                        <p style=""font-size:20px;line-height:15px;"">sad</p> -->
                    </div>
            

                    <!-- Grid section -->
                   <div style=""display: flex; justify-content: center; padding-top: 15px;"">
                    <div style=""display: grid; grid-template-columns: repeat(10, 55px); grid-gap: 5px; width: auto;"">
                        <img src=""images/map02_PiYG_scaleRev_orientDef_180.png"" alt=""map"" style=""width: 100%;""><img src=""images/map23_OrRd_scaleDef_orientMir_090.png"" alt=""map"" style=""width: 100%;""><img src=""images/map13_inferno_scaleRev_orientDef_000.png"" alt=""map"" style=""width: 100%;""><img src=""images/map02_PRGn_scaleRev_orientMir_000.png"" alt=""map"" style=""width: 100%;""><img src=""images/map10_managua_scaleRev_orientMir_000.png"" alt=""map"" style=""width: 100%;""><img src=""images/map10_seismic_scaleRev_orientDef_000.png"" alt=""map"" style=""width: 100%;""><img src=""images/map10_berlin_scaleRev_orientDef_180.png"" alt=""map"" style=""width: 100%;""><img src=""images/map27_PuBuGn_scaleDef_orientDef_270.png"" alt=""map"" style=""width: 100%;""><img src=""images/map23_YlOrRd_scaleDef_orientDef_270.png"" alt=""map"" style=""width: 100%;""><img src=""images/map07_coolwarm_scaleDef_orientDef_270.png"" alt=""map"" style=""width: 100%;""><img src=""images/map23_YlOrBr_scaleRev_orientDef_180.png"" alt=""map"" style=""width: 100%;""><img src=""images/map05_RdYlBu_scaleRev_orientMir_180.png"" alt=""map"" style=""width: 100%;""><img src=""images/map12_plasma_scaleDef_orientMir_090.png"" alt=""map"" style=""width: 100%;""><img src=""images/map07_Spectral_scaleDef_orientDef_090.png"" alt=""map"" style=""width: 100%;""><img src=""images/map02_PuOr_scaleDef_orientMir_270.png"" alt=""map"" style=""width: 100%;""><img src=""images/map23_PuRd_scaleDef_orientMir_270.png"" alt=""map"" style=""width: 100%;""><img src=""images/map05_RdBu_scaleRev_orientMir_000.png"" alt=""map"" style=""width: 100%;""><img src=""images/map05_RdYlGn_scaleDef_orientMir_270.png"" alt=""map"" style=""width: 100%;""><img src=""images/map13_Greys_scaleDef_orientMir_090.png"" alt=""map"" style=""width: 100%;""><img src=""images/map13_magma_scaleDef_orientDef_090.png"" alt=""map"" style=""width: 100%;""><img src=""images/map26_GnBu_scaleDef_orientMir_090.png"" alt=""map"" style=""width: 100%;""><img src=""images/map12_gist_earth_scaleRev_orientDef_000.png"" alt=""map"" style=""width: 100%;""><img src=""images/map07_bwr_scaleRev_orientMir_180.png"" alt=""map"" style=""width: 100%;""><img src=""images/map02_YlGn_scaleRev_orientDef_000.png"" alt=""map"" style=""width: 100%;""><img src=""images/map26_BuPu_scaleDef_orientDef_270.png"" alt=""map"" style=""width: 100%;""><img src=""images/map15_Greens_scaleRev_orientMir_000.png"" alt=""map"" style=""width: 100%;""><img src=""images/map02_BrBG_scaleDef_orientMir_090.png"" alt=""map"" style=""width: 100%;""><img src=""images/map15_Blues_scaleRev_orientDef_180.png"" alt=""map"" style=""width: 100%;""><img src=""images/map27_YlGnBu_scaleDef_orientDef_090.png"" alt=""map"" style=""width: 100%;""><img src=""images/map13_Purples_scaleDef_orientMir_270.png"" alt=""map"" style=""width: 100%;""><img src=""images/map13_cividis_scaleDef_orientDef_270.png"" alt=""map"" style=""width: 100%;""><img src=""images/map23_Reds_scaleRev_orientDef_000.png"" alt=""map"" style=""width: 100%;""><img src=""images/map12_viridis_scaleRev_orientMir_000.png"" alt=""map"" style=""width: 100%;""><img src=""images/map26_PuBu_scaleDef_orientMir_270.png"" alt=""map"" style=""width: 100%;""><img src=""images/map26_RdPu_scaleRev_orientDef_180.png"" alt=""map"" style=""width: 100%;""><img src=""images/map10_vanimo_scaleDef_orientMir_090.png"" alt=""map"" style=""width: 100%;""><img src=""images/map27_BuGn_scaleRev_orientMir_180.png"" alt=""map"" style=""width: 100%;""><img src=""images/map15_Oranges_scaleDef_orientMir_090.png"" alt=""map"" style=""width: 100%;""><img src=""images/map12_turbo_scaleRev_orientDef_180.png"" alt=""map"" style=""width: 100%;""><img src=""images/map05_RdGy_scaleRev_orientDef_180.png"" alt=""map"" style=""width: 100%;"">
                    </div>
                </div>

                    <!-- Clear floats -->
                    <div style=""clear: both;""></div>
                </div>
                            ",NA,"",0,"true",NA,"","","",NA,NA,NA,"","","","",NA,NA
"","","","","","html-button-response",7,172087,"0.0-7.0","l0520l2kpy",35,16149,"<div style=""width:800px;""><p style=""text-align:left"">To move the slider, click and drag your cursor to the location of the scale where you would like to make your rating and then let go. When you let go of the slider, your response will be recorded and the next trial will begin. <br>
                    We are interested in your initial impressions of each map for the given concept, so please go with your first intuition. <br>
                    Before you begin the experiment, there will be four training trials for you to practice using the scale. <br>
                     When you are ready to start the training trials, please click ""Continue"".</p><br></div>",0.5,"",NA,"",NA,"","","",NA,NA,NA,"","","","",NA,NA
"","","","","","html-slider-response",8,176066,"0.0-8.0-0.0","l0520l2kpy",35,NA,"<div style=""width:500px;"">
                                    <p style=""font-size:25px;"">Please move the slider all the way to the <br> right endpoint of the scale</p>

                                    </div>
                                </div>",1,"",0,"true",0,"true","","",NA,NA,NA,"","","","",NA,NA
"","","","","","html-button-response",9,177454,"0.0-8.0-1.0","l0520l2kpy",35,885,"<p align='center'><b>Good job!</b> Click on 'Continue' to proceed.</p>",0.5,"",NA,"",NA,"","","",NA,NA,NA,"","","","",NA,NA
"","","","","","html-slider-response",10,178882,"0.0-9.0-0.0","l0520l2kpy",35,NA,"<div style=""width:500px;"">
                                    <p style=""font-size:25px;"">Please move the slider all the way to the <br> left endpoint of the scale</p>

                                    </div>
                                </div>",0,"",0,"true",1,"true","","",NA,NA,NA,"","","","",NA,NA
"","","","","","html-button-response",11,180953,"0.0-9.0-1.0","l0520l2kpy",35,1569,"<p align='center'><b>Good job!</b> Click on 'Continue' to proceed.</p>",0.5,"",NA,"",NA,"","","",NA,NA,NA,"","","","",NA,NA
"","","","","","html-slider-response",12,185503,"0.0-10.0-0.0","l0520l2kpy",35,NA,"<div style=""width:500px;"">
                                    <p style=""font-size:25px;"">Please move the slider halfway between the center and right endpoint of the scale</p>

                                    </div>
                                </div>",0.765,"",0,"true",2,"true","","",NA,NA,NA,"","","","",NA,NA
"","","","","","html-button-response",13,186771,"0.0-10.0-1.0","l0520l2kpy",35,765,"<p align='center'><b>Good job!</b> Click on 'Continue' to proceed.</p>",0.5,"",NA,"",NA,"","","",NA,NA,NA,"","","","",NA,NA
"","","","","","html-slider-response",14,188881,"0.0-11.0-0.0","l0520l2kpy",35,NA,"<div style=""width:500px;"">
                                    <p style=""font-size:25px;"">Please move the slider halfway between the center and left endpoint of the scale</p>

                                    </div>
                                </div>",0.2175,"",0,"true",3,"false","","",NA,NA,NA,"","","","",NA,NA
"","","","","","html-button-response",15,191170,"0.0-11.0-1.0","l0520l2kpy",35,1787,"<p align='center'><b>Not quite!</b> The slider was not placed near the instructed located. Click on 'Continue' to try again. </p>",0.5,"",NA,"",NA,"","","",NA,NA,NA,"","","","",NA,NA
"","","","","","html-slider-response",16,198766,"0.0-11.1-0.1","l0520l2kpy",35,NA,"<div style=""width:500px;"">
                                    <p style=""font-size:25px;"">Please move the slider halfway between the center and left endpoint of the scale</p>

                                    </div>
                                </div>",0.24,"",0,"true",3,"true","","",NA,NA,NA,"","","","",NA,NA
"","","","","","html-button-response",17,200054,"0.0-11.1-1.1","l0520l2kpy",35,786,"<p align='center'><b>Good job!</b> Click on 'Continue' to proceed.</p>",0.5,"",NA,"",NA,"","","",NA,NA,NA,"","","","",NA,NA
"","","","","","html-button-response",18,201437,"0.0-12.0","l0520l2kpy",35,1383,"<p>Great job! You've completed the practice trials. Now you will begin the main task.</p>",0.5,"",NA,"",NA,"","","",NA,NA,NA,"","","","",NA,NA
"","","","","","html-button-response",19,206170,"0.0-13.0","l0520l2kpy",35,4732,"<p>In this block of trials, you will be asked to rate how much you associate each map with:</p > <p style = 'font-size:150%; font-weight: bold'>disgust</p><br></br>",0.5,"",NA,"",NA,"","","",NA,NA,NA,"","","","",NA,NA
"","","","","","html-slider-response",20,211799,"0.0-14.0","l0520l2kpy",35,NA,"<div style=""width:500px;"">
                            <p style=""font-size:50px; font-weight:bold;""
                            >disgust</p>
                            <div style=""width:240px; margin: auto;"">
                                <img src=""images/map02_BrBG_scaleDef_orientMir_090.png"" style= ""width:200px""alt=""img"">
                            </div>
                        </div>",0.8825,"",0,"",NA,"","images/map02_BrBG_scaleDef_orientMir_090.png","disgust",1,2,2,"BrBG","orientMir","scaleDef","090",NA,NA
"","","","","","html-slider-response",21,218333,"0.0-15.0","l0520l2kpy",35,NA,"<div style=""width:500px;"">
                            <p style=""font-size:50px; font-weight:bold;""
                            >disgust</p>
                            <div style=""width:240px; margin: auto;"">
                                <img src=""images/map10_vanimo_scaleRev_orientMir_180.png"" style= ""width:200px""alt=""img"">
                            </div>
                        </div>",0.9675,"",0,"",NA,"","images/map10_vanimo_scaleRev_orientMir_180.png","disgust",1,10,10,"vanimo","orientMir","scaleRev","180",NA,NA
"","","","","","html-slider-response",22,222133,"0.0-16.0","l0520l2kpy",35,NA,"<div style=""width:500px;"">
                            <p style=""font-size:50px; font-weight:bold;""
                            >disgust</p>
                            <div style=""width:240px; margin: auto;"">
                                <img src=""images/map27_BuGn_scaleDef_orientMir_090.png"" style= ""width:200px""alt=""img"">
                            </div>
                        </div>",0.21,"",0,"",NA,"","images/map27_BuGn_scaleDef_orientMir_090.png","disgust",1,27,27,"BuGn","orientMir","scaleDef","090",NA,NA
"","","","","","html-slider-response",23,225432,"0.0-17.0","l0520l2kpy",35,NA,"<div style=""width:500px;"">
                            <p style=""font-size:50px; font-weight:bold;""
                            >disgust</p>
                            <div style=""width:240px; margin: auto;"">
                                <img src=""images/map02_PiYG_scaleDef_orientDef_090.png"" style= ""width:200px""alt=""img"">
                            </div>
                        </div>",0.745,"",0,"",NA,"","images/map02_PiYG_scaleDef_orientDef_090.png","disgust",1,2,2,"PiYG","orientDef","scaleDef","090",NA,NA
"","","","","","html-slider-response",24,227083,"0.0-18.0","l0520l2kpy",35,NA,"<div style=""width:500px;"">
                            <p style=""font-size:50px; font-weight:bold;""
                            >disgust</p>
                            <div style=""width:240px; margin: auto;"">
                                <img src=""images/map02_PRGn_scaleDef_orientDef_270.png"" style= ""width:200px""alt=""img"">
                            </div>
                        </div>",0.7925,"",0,"",NA,"","images/map02_PRGn_scaleDef_orientDef_270.png","disgust",1,2,2,"PRGn","orientDef","scaleDef","270",NA,NA
"","","","","","html-slider-response",25,229432,"0.0-19.0","l0520l2kpy",35,NA,"<div style=""width:500px;"">
                            <p style=""font-size:50px; font-weight:bold;""
                            >disgust</p>
                            <div style=""width:240px; margin: auto;"">
                                <img src=""images/map07_bwr_scaleRev_orientMir_180.png"" style= ""width:200px""alt=""img"">
                            </div>
                        </div>",0.015,"",0,"",NA,"","images/map07_bwr_scaleRev_orientMir_180.png","disgust",1,7,7,"bwr","orientMir","scaleRev","180",NA,NA
"","","","","","html-slider-response",26,231832,"0.0-20.0","l0520l2kpy",35,NA,"<div style=""width:500px;"">
                            <p style=""font-size:50px; font-weight:bold;""
                            >disgust</p>
                            <div style=""width:240px; margin: auto;"">
                                <img src=""images/map23_YlOrBr_scaleRev_orientDef_180.png"" style= ""width:200px""alt=""img"">
                            </div>
                        </div>",0.0075,"",0,"",NA,"","images/map23_YlOrBr_scaleRev_orientDef_180.png","disgust",1,23,23,"YlOrBr","orientDef","scaleRev","180",NA,NA
"","","","","","html-slider-response",27,234132,"0.0-21.0","l0520l2kpy",35,NA,"<div style=""width:500px;"">
                            <p style=""font-size:50px; font-weight:bold;""
                            >disgust</p>
                            <div style=""width:240px; margin: auto;"">
                                <img src=""images/map07_Spectral_scaleRev_orientDef_180.png"" style= ""width:200px""alt=""img"">
                            </div>
                        </div>",0.0075,"",0,"",NA,"","images/map07_Spectral_scaleRev_orientDef_180.png","disgust",1,7,7,"Spectral","orientDef","scaleRev","180",NA,NA
"","","","","","html-slider-response",28,236648,"0.0-22.0","l0520l2kpy",35,NA,"<div style=""width:500px;"">
                            <p style=""font-size:50px; font-weight:bold;""
                            >disgust</p>
                            <div style=""width:240px; margin: auto;"">
                                <img src=""images/map23_YlOrRd_scaleRev_orientMir_000.png"" style= ""width:200px""alt=""img"">
                            </div>
                        </div>",0.005,"",0,"",NA,"","images/map23_YlOrRd_scaleRev_orientMir_000.png","disgust",1,23,23,"YlOrRd","orientMir","scaleRev","000",NA,NA
"","","","","","html-slider-response",29,238933,"0.0-23.0","l0520l2kpy",35,NA,"<div style=""width:500px;"">
                            <p style=""font-size:50px; font-weight:bold;""
                            >disgust</p>
                            <div style=""width:240px; margin: auto;"">
                                <img src=""images/map10_vanimo_scaleDef_orientMir_090.png"" style= ""width:200px""alt=""img"">
                            </div>
                        </div>",0.96,"",0,"",NA,"","images/map10_vanimo_scaleDef_orientMir_090.png","disgust",1,10,10,"vanimo","orientMir","scaleDef","090",NA,NA
"","","","","","html-slider-response",30,240966,"0.0-24.0","l0520l2kpy",35,NA,"<div style=""width:500px;"">
                            <p style=""font-size:50px; font-weight:bold;""
                            >disgust</p>
                            <div style=""width:240px; margin: auto;"">
                                <img src=""images/map27_YlGnBu_scaleRev_orientDef_180.png"" style= ""width:200px""alt=""img"">
                            </div>
                        </div>",0.135,"",0,"",NA,"","images/map27_YlGnBu_scaleRev_orientDef_180.png","disgust",1,27,27,"YlGnBu","orientDef","scaleRev","180",NA,NA
"","","","","","html-slider-response",31,242915,"0.0-25.0","l0520l2kpy",35,NA,"<div style=""width:500px;"">
                            <p style=""font-size:50px; font-weight:bold;""
                            >disgust</p>
                            <div style=""width:240px; margin: auto;"">
                                <img src=""images/map07_coolwarm_scaleDef_orientDef_270.png"" style= ""width:200px""alt=""img"">
                            </div>
                        </div>",0.0075,"",0,"",NA,"","images/map07_coolwarm_scaleDef_orientDef_270.png","disgust",1,7,7,"coolwarm","orientDef","scaleDef","270",NA,NA
"","","","","","html-slider-response",32,245548,"0.0-26.0","l0520l2kpy",35,NA,"<div style=""width:500px;"">
                            <p style=""font-size:50px; font-weight:bold;""
                            >disgust</p>
                            <div style=""width:240px; margin: auto;"">
                                <img src=""images/map13_Purples_scaleDef_orientMir_270.png"" style= ""width:200px""alt=""img"">
                            </div>
                        </div>",0.2,"",0,"",NA,"","images/map13_Purples_scaleDef_orientMir_270.png","disgust",1,13,13,"Purples","orientMir","scaleDef","270",NA,NA
"","","","","","html-slider-response",33,247782,"0.0-27.0","l0520l2kpy",35,NA,"<div style=""width:500px;"">
                            <p style=""font-size:50px; font-weight:bold;""
                            >disgust</p>
                            <div style=""width:240px; margin: auto;"">
                                <img src=""images/map07_bwr_scaleDef_orientMir_090.png"" style= ""width:200px""alt=""img"">
                            </div>
                        </div>",0.0925,"",0,"",NA,"","images/map07_bwr_scaleDef_orientMir_090.png","disgust",1,7,7,"bwr","orientMir","scaleDef","090",NA,NA
"","","","","","html-slider-response",34,249465,"0.0-28.0","l0520l2kpy",35,NA,"<div style=""width:500px;"">
                            <p style=""font-size:50px; font-weight:bold;""
                            >disgust</p>
                            <div style=""width:240px; margin: auto;"">
                                <img src=""images/map27_YlGnBu_scaleDef_orientDef_090.png"" style= ""width:200px""alt=""img"">
                            </div>
                        </div>",0.065,"",0,"",NA,"","images/map27_YlGnBu_scaleDef_orientDef_090.png","disgust",1,27,27,"YlGnBu","orientDef","scaleDef","090",NA,NA
"","","","","","html-slider-response",35,251916,"0.0-29.0","l0520l2kpy",35,NA,"<div style=""width:500px;"">
                            <p style=""font-size:50px; font-weight:bold;""
                            >disgust</p>
                            <div style=""width:240px; margin: auto;"">
                                <img src=""images/map02_PiYG_scaleRev_orientDef_180.png"" style= ""width:200px""alt=""img"">
                            </div>
                        </div>",0.9825,"",0,"",NA,"","images/map02_PiYG_scaleRev_orientDef_180.png","disgust",1,2,2,"PiYG","orientDef","scaleRev","180",NA,NA
"","","","","","html-slider-response",36,254332,"0.0-30.0","l0520l2kpy",35,NA,"<div style=""width:500px;"">
                            <p style=""font-size:50px; font-weight:bold;""
                            >disgust</p>
                            <div style=""width:240px; margin: auto;"">
                                <img src=""images/map10_berlin_scaleDef_orientDef_090.png"" style= ""width:200px""alt=""img"">
                            </div>
                        </div>",0.1425,"",0,"",NA,"","images/map10_berlin_scaleDef_orientDef_090.png","disgust",1,10,10,"berlin","orientDef","scaleDef","090",NA,NA
"","","","","","html-slider-response",37,256566,"0.0-31.0","l0520l2kpy",35,NA,"<div style=""width:500px;"">
                            <p style=""font-size:50px; font-weight:bold;""
                            >disgust</p>
                            <div style=""width:240px; margin: auto;"">
                                <img src=""images/map07_RdYlGn_scaleRev_orientDef_000.png"" style= ""width:200px""alt=""img"">
                            </div>
                        </div>",0.6525,"",0,"",NA,"","images/map07_RdYlGn_scaleRev_orientDef_000.png","disgust",1,7,7,"RdYlGn","orientDef","scaleRev","000",NA,NA
"","","","","","html-slider-response",38,258965,"0.0-32.0","l0520l2kpy",35,NA,"<div style=""width:500px;"">
                            <p style=""font-size:50px; font-weight:bold;""
                            >disgust</p>
                            <div style=""width:240px; margin: auto;"">
                                <img src=""images/map10_managua_scaleDef_orientDef_270.png"" style= ""width:200px""alt=""img"">
                            </div>
                        </div>",0.1525,"",0,"",NA,"","images/map10_managua_scaleDef_orientDef_270.png","disgust",1,10,10,"managua","orientDef","scaleDef","270",NA,NA
"","","","","","html-slider-response",39,261633,"0.0-33.0","l0520l2kpy",35,NA,"<div style=""width:500px;"">
                            <p style=""font-size:50px; font-weight:bold;""
                            >disgust</p>
                            <div style=""width:240px; margin: auto;"">
                                <img src=""images/map15_Greens_scaleDef_orientDef_270.png"" style= ""width:200px""alt=""img"">
                            </div>
                        </div>",0.3375,"",0,"",NA,"","images/map15_Greens_scaleDef_orientDef_270.png","disgust",1,15,15,"Greens","orientDef","scaleDef","270",NA,NA
"","","","","","html-slider-response",40,264465,"0.0-34.0","l0520l2kpy",35,NA,"<div style=""width:500px;"">
                            <p style=""font-size:50px; font-weight:bold;""
                            >disgust</p>
                            <div style=""width:240px; margin: auto;"">
                                <img src=""images/map12_turbo_scaleRev_orientDef_180.png"" style= ""width:200px""alt=""img"">
                            </div>
                        </div>",0.1375,"",0,"",NA,"","images/map12_turbo_scaleRev_orientDef_180.png","disgust",1,12,12,"turbo","orientDef","scaleRev","180",NA,NA
"","","","","","html-slider-response",41,266232,"0.0-35.0","l0520l2kpy",35,NA,"<div style=""width:500px;"">
                            <p style=""font-size:50px; font-weight:bold;""
                            >disgust</p>
                            <div style=""width:240px; margin: auto;"">
                                <img src=""images/map26_PuBu_scaleDef_orientMir_270.png"" style= ""width:200px""alt=""img"">
                            </div>
                        </div>",0.075,"",0,"",NA,"","images/map26_PuBu_scaleDef_orientMir_270.png","disgust",1,26,26,"PuBu","orientMir","scaleDef","270",NA,NA
"","","","","","html-slider-response",42,269032,"0.0-36.0","l0520l2kpy",35,NA,"<div style=""width:500px;"">
                            <p style=""font-size:50px; font-weight:bold;""
                            >disgust</p>
                            <div style=""width:240px; margin: auto;"">
                                <img src=""images/map02_BrBG_scaleRev_orientMir_180.png"" style= ""width:200px""alt=""img"">
                            </div>
                        </div>",0.7125,"",0,"",NA,"","images/map02_BrBG_scaleRev_orientMir_180.png","disgust",1,2,2,"BrBG","orientMir","scaleRev","180",NA,NA
"","","","","","html-slider-response",43,271950,"0.0-37.0","l0520l2kpy",35,NA,"<div style=""width:500px;"">
                            <p style=""font-size:50px; font-weight:bold;""
                            >disgust</p>
                            <div style=""width:240px; margin: auto;"">
                                <img src=""images/map27_YlGn_scaleDef_orientMir_270.png"" style= ""width:200px""alt=""img"">
                            </div>
                        </div>",0.735,"",0,"",NA,"","images/map27_YlGn_scaleDef_orientMir_270.png","disgust",1,27,27,"YlGn","orientMir","scaleDef","270",NA,NA
"","","","","","html-slider-response",44,273965,"0.0-38.0","l0520l2kpy",35,NA,"<div style=""width:500px;"">
                            <p style=""font-size:50px; font-weight:bold;""
                            >disgust</p>
                            <div style=""width:240px; margin: auto;"">
                                <img src=""images/map26_GnBu_scaleDef_orientMir_090.png"" style= ""width:200px""alt=""img"">
                            </div>
                        </div>",0.0775,"",0,"",NA,"","images/map26_GnBu_scaleDef_orientMir_090.png","disgust",1,26,26,"GnBu","orientMir","scaleDef","090",NA,NA
"","","","","","html-slider-response",45,275432,"0.0-39.0","l0520l2kpy",35,NA,"<div style=""width:500px;"">
                            <p style=""font-size:50px; font-weight:bold;""
                            >disgust</p>
                            <div style=""width:240px; margin: auto;"">
                                <img src=""images/map13_magma_scaleRev_orientDef_180.png"" style= ""width:200px""alt=""img"">
                            </div>
                        </div>",0.11,"",0,"",NA,"","images/map13_magma_scaleRev_orientDef_180.png","disgust",1,13,13,"magma","orientDef","scaleRev","180",NA,NA
"","","","","","html-slider-response",46,280783,"0.0-40.0","l0520l2kpy",35,NA,"<div style=""width:500px;"">
                            <p style=""font-size:50px; font-weight:bold;""
                            >disgust</p>
                            <div style=""width:240px; margin: auto;"">
                                <img src=""images/map15_Oranges_scaleDef_orientMir_090.png"" style= ""width:200px""alt=""img"">
                            </div>
                        </div>",0.6125,"",0,"",NA,"","images/map15_Oranges_scaleDef_orientMir_090.png","disgust",1,15,15,"Oranges","orientMir","scaleDef","090",NA,NA
"","","","","","html-slider-response",47,282814,"0.0-41.0","l0520l2kpy",35,NA,"<div style=""width:500px;"">
                            <p style=""font-size:50px; font-weight:bold;""
                            >disgust</p>
                            <div style=""width:240px; margin: auto;"">
                                <img src=""images/map26_PuRd_scaleRev_orientDef_000.png"" style= ""width:200px""alt=""img"">
                            </div>
                        </div>",0.1825,"",0,"",NA,"","images/map26_PuRd_scaleRev_orientDef_000.png","disgust",1,26,26,"PuRd","orientDef","scaleRev","000",NA,NA
"","","","","","html-slider-response",48,284932,"0.0-42.0","l0520l2kpy",35,NA,"<div style=""width:500px;"">
                            <p style=""font-size:50px; font-weight:bold;""
                            >disgust</p>
                            <div style=""width:240px; margin: auto;"">
                                <img src=""images/map26_BuPu_scaleRev_orientMir_000.png"" style= ""width:200px""alt=""img"">
                            </div>
                        </div>",0.255,"",0,"",NA,"","images/map26_BuPu_scaleRev_orientMir_000.png","disgust",1,26,26,"BuPu","orientMir","scaleRev","000",NA,NA
"","","","","","html-slider-response",49,286932,"0.0-43.0","l0520l2kpy",35,NA,"<div style=""width:500px;"">
                            <p style=""font-size:50px; font-weight:bold;""
                            >disgust</p>
                            <div style=""width:240px; margin: auto;"">
                                <img src=""images/map23_YlOrRd_scaleDef_orientDef_270.png"" style= ""width:200px""alt=""img"">
                            </div>
                        </div>",0.095,"",0,"",NA,"","images/map23_YlOrRd_scaleDef_orientDef_270.png","disgust",1,23,23,"YlOrRd","orientDef","scaleDef","270",NA,NA
"","","","","","html-slider-response",50,288448,"0.0-44.0","l0520l2kpy",35,NA,"<div style=""width:500px;"">
                            <p style=""font-size:50px; font-weight:bold;""
                            >disgust</p>
                            <div style=""width:240px; margin: auto;"">
                                <img src=""images/map15_Blues_scaleRev_orientDef_180.png"" style= ""width:200px""alt=""img"">
                            </div>
                        </div>",0.015,"",0,"",NA,"","images/map15_Blues_scaleRev_orientDef_180.png","disgust",1,15,15,"Blues","orientDef","scaleRev","180",NA,NA
"","","","","","html-slider-response",51,289632,"0.0-45.0","l0520l2kpy",35,NA,"<div style=""width:500px;"">
                            <p style=""font-size:50px; font-weight:bold;""
                            >disgust</p>
                            <div style=""width:240px; margin: auto;"">
                                <img src=""images/map23_OrRd_scaleRev_orientMir_180.png"" style= ""width:200px""alt=""img"">
                            </div>
                        </div>",0.08,"",0,"",NA,"","images/map23_OrRd_scaleRev_orientMir_180.png","disgust",1,23,23,"OrRd","orientMir","scaleRev","180",NA,NA
"","","","","","html-slider-response",52,292599,"0.0-46.0","l0520l2kpy",35,NA,"<div style=""width:500px;"">
                            <p style=""font-size:50px; font-weight:bold;""
                            >disgust</p>
                            <div style=""width:240px; margin: auto;"">
                                <img src=""images/map13_Greys_scaleRev_orientMir_180.png"" style= ""width:200px""alt=""img"">
                            </div>
                        </div>",0.075,"",0,"",NA,"","images/map13_Greys_scaleRev_orientMir_180.png","disgust",1,13,13,"Greys","orientMir","scaleRev","180",NA,NA
"","","","","","html-slider-response",53,295049,"0.0-47.0","l0520l2kpy",35,NA,"<div style=""width:500px;"">
                            <p style=""font-size:50px; font-weight:bold;""
                            >disgust</p>
                            <div style=""width:240px; margin: auto;"">
                                <img src=""images/map13_cividis_scaleRev_orientMir_000.png"" style= ""width:200px""alt=""img"">
                            </div>
                        </div>",0.29,"",0,"",NA,"","images/map13_cividis_scaleRev_orientMir_000.png","disgust",1,13,13,"cividis","orientMir","scaleRev","000",NA,NA
"","","","","","html-slider-response",54,297298,"0.0-48.0","l0520l2kpy",35,NA,"<div style=""width:500px;"">
                            <p style=""font-size:50px; font-weight:bold;""
                            >disgust</p>
                            <div style=""width:240px; margin: auto;"">
                                <img src=""images/map02_YlGn_scaleRev_orientDef_000.png"" style= ""width:200px""alt=""img"">
                            </div>
                        </div>",0.6075,"",0,"",NA,"","images/map02_YlGn_scaleRev_orientDef_000.png","disgust",1,2,2,"YlGn","orientDef","scaleRev","000",NA,NA
"","","","","","html-slider-response",55,299282,"0.0-49.0","l0520l2kpy",35,NA,"<div style=""width:500px;"">
                            <p style=""font-size:50px; font-weight:bold;""
                            >disgust</p>
                            <div style=""width:240px; margin: auto;"">
                                <img src=""images/map12_inferno_scaleDef_orientMir_270.png"" style= ""width:200px""alt=""img"">
                            </div>
                        </div>",0.1975,"",0,"",NA,"","images/map12_inferno_scaleDef_orientMir_270.png","disgust",1,12,12,"inferno","orientMir","scaleDef","270",NA,NA
"","","","","","html-slider-response",56,300816,"0.0-50.0","l0520l2kpy",35,NA,"<div style=""width:500px;"">
                            <p style=""font-size:50px; font-weight:bold;""
                            >disgust</p>
                            <div style=""width:240px; margin: auto;"">
                                <img src=""images/map10_managua_scaleRev_orientMir_000.png"" style= ""width:200px""alt=""img"">
                            </div>
                        </div>",0.1425,"",0,"",NA,"","images/map10_managua_scaleRev_orientMir_000.png","disgust",1,10,10,"managua","orientMir","scaleRev","000",NA,NA
"","","","","","html-slider-response",57,302498,"0.0-51.0","l0520l2kpy",35,NA,"<div style=""width:500px;"">
                            <p style=""font-size:50px; font-weight:bold;""
                            >disgust</p>
                            <div style=""width:240px; margin: auto;"">
                                <img src=""images/map12_plasma_scaleRev_orientMir_180.png"" style= ""width:200px""alt=""img"">
                            </div>
                        </div>",0.055,"",0,"",NA,"","images/map12_plasma_scaleRev_orientMir_180.png","disgust",1,12,12,"plasma","orientMir","scaleRev","180",NA,NA
"","","","","","html-slider-response",58,305282,"0.0-52.0","l0520l2kpy",35,NA,"<div style=""width:500px;"">
                            <p style=""font-size:50px; font-weight:bold;""
                            >disgust</p>
                            <div style=""width:240px; margin: auto;"">
                                <img src=""images/map13_inferno_scaleRev_orientDef_000.png"" style= ""width:200px""alt=""img"">
                            </div>
                        </div>",0.1825,"",0,"",NA,"","images/map13_inferno_scaleRev_orientDef_000.png","disgust",1,13,13,"inferno","orientDef","scaleRev","000",NA,NA
"","","","","","html-slider-response",59,306665,"0.0-53.0","l0520l2kpy",35,NA,"<div style=""width:500px;"">
                            <p style=""font-size:50px; font-weight:bold;""
                            >disgust</p>
                            <div style=""width:240px; margin: auto;"">
                                <img src=""images/map05_PuOr_scaleRev_orientDef_000.png"" style= ""width:200px""alt=""img"">
                            </div>
                        </div>",0.12,"",0,"",NA,"","images/map05_PuOr_scaleRev_orientDef_000.png","disgust",1,5,5,"PuOr","orientDef","scaleRev","000",NA,NA
"","","","","","html-button-response",60,308804,"0.0-54.0","l0520l2kpy",35,1637,"<p>You are doing great!<br></br> You are halway done with the current block. When you are ready to continue, click the 'Continue' button.</p>",0.5,"",NA,"",NA,"","","",NA,NA,NA,"","","","",NA,NA
"","","","","","html-slider-response",61,315215,"0.0-55.0","l0520l2kpy",35,NA,"<div style=""width:500px;"">
                            <p style=""font-size:50px; font-weight:bold;""
                            >disgust</p>
                            <div style=""width:240px; margin: auto;"">
                                <img src=""images/map12_turbo_scaleDef_orientDef_090.png"" style= ""width:200px""alt=""img"">
                            </div>
                        </div>",0.345,"",0,"",NA,"","images/map12_turbo_scaleDef_orientDef_090.png","disgust",1,12,12,"turbo","orientDef","scaleDef","090",NA,NA
"","","","","","html-slider-response",62,318432,"0.0-56.0","l0520l2kpy",35,NA,"<div style=""width:500px;"">
                            <p style=""font-size:50px; font-weight:bold;""
                            >disgust</p>
                            <div style=""width:240px; margin: auto;"">
                                <img src=""images/map07_seismic_scaleDef_orientMir_270.png"" style= ""width:200px""alt=""img"">
                            </div>
                        </div>",0.065,"",0,"",NA,"","images/map07_seismic_scaleDef_orientMir_270.png","disgust",1,7,7,"seismic","orientMir","scaleDef","270",NA,NA
"","","","","","html-slider-response",63,319716,"0.0-57.0","l0520l2kpy",35,NA,"<div style=""width:500px;"">
                            <p style=""font-size:50px; font-weight:bold;""
                            >disgust</p>
                            <div style=""width:240px; margin: auto;"">
                                <img src=""images/map26_GnBu_scaleRev_orientMir_180.png"" style= ""width:200px""alt=""img"">
                            </div>
                        </div>",0.065,"",0,"",NA,"","images/map26_GnBu_scaleRev_orientMir_180.png","disgust",1,26,26,"GnBu","orientMir","scaleRev","180",NA,NA
"","","","","","html-slider-response",64,321716,"0.0-58.0","l0520l2kpy",35,NA,"<div style=""width:500px;"">
                            <p style=""font-size:50px; font-weight:bold;""
                            >disgust</p>
                            <div style=""width:240px; margin: auto;"">
                                <img src=""images/map27_PuBuGn_scaleDef_orientDef_270.png"" style= ""width:200px""alt=""img"">
                            </div>
                        </div>",0.185,"",0,"",NA,"","images/map27_PuBuGn_scaleDef_orientDef_270.png","disgust",1,27,27,"PuBuGn","orientDef","scaleDef","270",NA,NA
"","","","","","html-slider-response",65,323566,"0.0-59.0","l0520l2kpy",35,NA,"<div style=""width:500px;"">
                            <p style=""font-size:50px; font-weight:bold;""
                            >disgust</p>
                            <div style=""width:240px; margin: auto;"">
                                <img src=""images/map27_BuGn_scaleRev_orientMir_180.png"" style= ""width:200px""alt=""img"">
                            </div>
                        </div>",0.615,"",0,"",NA,"","images/map27_BuGn_scaleRev_orientMir_180.png","disgust",1,27,27,"BuGn","orientMir","scaleRev","180",NA,NA
"","","","","","html-slider-response",66,325132,"0.0-60.0","l0520l2kpy",35,NA,"<div style=""width:500px;"">
                            <p style=""font-size:50px; font-weight:bold;""
                            >disgust</p>
                            <div style=""width:240px; margin: auto;"">
                                <img src=""images/map23_PuRd_scaleDef_orientMir_270.png"" style= ""width:200px""alt=""img"">
                            </div>
                        </div>",0.0925,"",0,"",NA,"","images/map23_PuRd_scaleDef_orientMir_270.png","disgust",1,23,23,"PuRd","orientMir","scaleDef","270",NA,NA
"","","","","","html-slider-response",67,327399,"0.0-61.0","l0520l2kpy",35,NA,"<div style=""width:500px;"">
                            <p style=""font-size:50px; font-weight:bold;""
                            >disgust</p>
                            <div style=""width:240px; margin: auto;"">
                                <img src=""images/map26_BuPu_scaleDef_orientDef_270.png"" style= ""width:200px""alt=""img"">
                            </div>
                        </div>",0.575,"",0,"",NA,"","images/map26_BuPu_scaleDef_orientDef_270.png","disgust",1,26,26,"BuPu","orientDef","scaleDef","270",NA,NA
"","","","","","html-slider-response",68,328715,"0.0-62.0","l0520l2kpy",35,NA,"<div style=""width:500px;"">
                            <p style=""font-size:50px; font-weight:bold;""
                            >disgust</p>
                            <div style=""width:240px; margin: auto;"">
                                <img src=""images/map07_Spectral_scaleDef_orientDef_090.png"" style= ""width:200px""alt=""img"">
                            </div>
                        </div>",0.3875,"",0,"",NA,"","images/map07_Spectral_scaleDef_orientDef_090.png","disgust",1,7,7,"Spectral","orientDef","scaleDef","090",NA,NA
"","","","","","html-slider-response",69,330749,"0.0-63.0","l0520l2kpy",35,NA,"<div style=""width:500px;"">
                            <p style=""font-size:50px; font-weight:bold;""
                            >disgust</p>
                            <div style=""width:240px; margin: auto;"">
                                <img src=""images/map10_gist_earth_scaleDef_orientMir_270.png"" style= ""width:200px""alt=""img"">
                            </div>
                        </div>",0.6775,"",0,"",NA,"","images/map10_gist_earth_scaleDef_orientMir_270.png","disgust",1,10,10,"gist","scaleDef","earth","orientMir",NA,NA
"","","","","","html-slider-response",70,332532,"0.0-64.0","l0520l2kpy",35,NA,"<div style=""width:500px;"">
                            <p style=""font-size:50px; font-weight:bold;""
                            >disgust</p>
                            <div style=""width:240px; margin: auto;"">
                                <img src=""images/map07_coolwarm_scaleRev_orientMir_000.png"" style= ""width:200px""alt=""img"">
                            </div>
                        </div>",0.2325,"",0,"",NA,"","images/map07_coolwarm_scaleRev_orientMir_000.png","disgust",1,7,7,"coolwarm","orientMir","scaleRev","000",NA,NA
"","","","","","html-slider-response",71,334715,"0.0-65.0","l0520l2kpy",35,NA,"<div style=""width:500px;"">
                            <p style=""font-size:50px; font-weight:bold;""
                            >disgust</p>
                            <div style=""width:240px; margin: auto;"">
                                <img src=""images/map02_PuOr_scaleDef_orientMir_270.png"" style= ""width:200px""alt=""img"">
                            </div>
                        </div>",0.6775,"",0,"",NA,"","images/map02_PuOr_scaleDef_orientMir_270.png","disgust",1,2,2,"PuOr","orientMir","scaleDef","270",NA,NA
"","","","","","html-slider-response",72,336398,"0.0-66.0","l0520l2kpy",35,NA,"<div style=""width:500px;"">
                            <p style=""font-size:50px; font-weight:bold;""
                            >disgust</p>
                            <div style=""width:240px; margin: auto;"">
                                <img src=""images/map10_seismic_scaleRev_orientDef_000.png"" style= ""width:200px""alt=""img"">
                            </div>
                        </div>",0.12,"",0,"",NA,"","images/map10_seismic_scaleRev_orientDef_000.png","disgust",1,10,10,"seismic","orientDef","scaleRev","000",NA,NA
"","","","","","html-slider-response",73,338382,"0.0-67.0","l0520l2kpy",35,NA,"<div style=""width:500px;"">
                            <p style=""font-size:50px; font-weight:bold;""
                            >disgust</p>
                            <div style=""width:240px; margin: auto;"">
                                <img src=""images/map15_Oranges_scaleRev_orientMir_180.png"" style= ""width:200px""alt=""img"">
                            </div>
                        </div>",0.375,"",0,"",NA,"","images/map15_Oranges_scaleRev_orientMir_180.png","disgust",1,15,15,"Oranges","orientMir","scaleRev","180",NA,NA
"","","","","","html-slider-response",74,340833,"0.0-68.0","l0520l2kpy",35,NA,"<div style=""width:500px;"">
                            <p style=""font-size:50px; font-weight:bold;""
                            >disgust</p>
                            <div style=""width:240px; margin: auto;"">
                                <img src=""images/map27_PuBuGn_scaleRev_orientMir_000.png"" style= ""width:200px""alt=""img"">
                            </div>
                        </div>",0,"",0,"",NA,"","images/map27_PuBuGn_scaleRev_orientMir_000.png","disgust",1,27,27,"PuBuGn","orientMir","scaleRev","000",NA,NA
"","","","","","html-slider-response",75,342116,"0.0-69.0","l0520l2kpy",35,NA,"<div style=""width:500px;"">
                            <p style=""font-size:50px; font-weight:bold;""
                            >disgust</p>
                            <div style=""width:240px; margin: auto;"">
                                <img src=""images/map05_RdYlBu_scaleDef_orientMir_090.png"" style= ""width:200px""alt=""img"">
                            </div>
                        </div>",0.04,"",0,"",NA,"","images/map05_RdYlBu_scaleDef_orientMir_090.png","disgust",1,5,5,"RdYlBu","orientMir","scaleDef","090",NA,NA
"","","","","","html-slider-response",76,343449,"0.0-70.0","l0520l2kpy",35,NA,"<div style=""width:500px;"">
                            <p style=""font-size:50px; font-weight:bold;""
                            >disgust</p>
                            <div style=""width:240px; margin: auto;"">
                                <img src=""images/map05_RdBu_scaleRev_orientMir_000.png"" style= ""width:200px""alt=""img"">
                            </div>
                        </div>",0.04,"",0,"",NA,"","images/map05_RdBu_scaleRev_orientMir_000.png","disgust",1,5,5,"RdBu","orientMir","scaleRev","000",NA,NA
"","","","","","html-slider-response",77,345299,"0.0-71.0","l0520l2kpy",35,NA,"<div style=""width:500px;"">
                            <p style=""font-size:50px; font-weight:bold;""
                            >disgust</p>
                            <div style=""width:240px; margin: auto;"">
                                <img src=""images/map12_gist_earth_scaleRev_orientDef_000.png"" style= ""width:200px""alt=""img"">
                            </div>
                        </div>",0.6175,"",0,"",NA,"","images/map12_gist_earth_scaleRev_orientDef_000.png","disgust",1,12,12,"gist","scaleRev","earth","orientDef",NA,NA
"","","","","","html-slider-response",78,346582,"0.0-72.0","l0520l2kpy",35,NA,"<div style=""width:500px;"">
                            <p style=""font-size:50px; font-weight:bold;""
                            >disgust</p>
                            <div style=""width:240px; margin: auto;"">
                                <img src=""images/map15_Greens_scaleRev_orientMir_000.png"" style= ""width:200px""alt=""img"">
                            </div>
                        </div>",0.7275,"",0,"",NA,"","images/map15_Greens_scaleRev_orientMir_000.png","disgust",1,15,15,"Greens","orientMir","scaleRev","000",NA,NA
"","","","","","html-slider-response",79,348732,"0.0-73.0","l0520l2kpy",35,NA,"<div style=""width:500px;"">
                            <p style=""font-size:50px; font-weight:bold;""
                            >disgust</p>
                            <div style=""width:240px; margin: auto;"">
                                <img src=""images/map26_RdPu_scaleDef_orientDef_090.png"" style= ""width:200px""alt=""img"">
                            </div>
                        </div>",0.345,"",0,"",NA,"","images/map26_RdPu_scaleDef_orientDef_090.png","disgust",1,26,26,"RdPu","orientDef","scaleDef","090",NA,NA
"","","","","","html-slider-response",80,350716,"0.0-74.0","l0520l2kpy",35,NA,"<div style=""width:500px;"">
                            <p style=""font-size:50px; font-weight:bold;""
                            >disgust</p>
                            <div style=""width:240px; margin: auto;"">
                                <img src=""images/map15_Reds_scaleDef_orientMir_270.png"" style= ""width:200px""alt=""img"">
                            </div>
                        </div>",0.01,"",0,"",NA,"","images/map15_Reds_scaleDef_orientMir_270.png","disgust",1,15,15,"Reds","orientMir","scaleDef","270",NA,NA
"","","","","","html-slider-response",81,351833,"0.0-75.0","l0520l2kpy",35,NA,"<div style=""width:500px;"">
                            <p style=""font-size:50px; font-weight:bold;""
                            >disgust</p>
                            <div style=""width:240px; margin: auto;"">
                                <img src=""images/map23_OrRd_scaleDef_orientMir_090.png"" style= ""width:200px""alt=""img"">
                            </div>
                        </div>",0.01,"",0,"",NA,"","images/map23_OrRd_scaleDef_orientMir_090.png","disgust",1,23,23,"OrRd","orientMir","scaleDef","090",NA,NA
"","","","","","html-slider-response",82,353666,"0.0-76.0","l0520l2kpy",35,NA,"<div style=""width:500px;"">
                            <p style=""font-size:50px; font-weight:bold;""
                            >disgust</p>
                            <div style=""width:240px; margin: auto;"">
                                <img src=""images/map05_RdGy_scaleRev_orientDef_180.png"" style= ""width:200px""alt=""img"">
                            </div>
                        </div>",0.1425,"",0,"",NA,"","images/map05_RdGy_scaleRev_orientDef_180.png","disgust",1,5,5,"RdGy","orientDef","scaleRev","180",NA,NA
"","","","","","html-slider-response",83,356599,"0.0-77.0","l0520l2kpy",35,NA,"<div style=""width:500px;"">
                            <p style=""font-size:50px; font-weight:bold;""
                            >disgust</p>
                            <div style=""width:240px; margin: auto;"">
                                <img src=""images/map12_viridis_scaleRev_orientMir_000.png"" style= ""width:200px""alt=""img"">
                            </div>
                        </div>",0.5825,"",0,"",NA,"","images/map12_viridis_scaleRev_orientMir_000.png","disgust",1,12,12,"viridis","orientMir","scaleRev","000",NA,NA
"","","","","","html-slider-response",84,359065,"0.0-78.0","l0520l2kpy",35,NA,"<div style=""width:500px;"">
                            <p style=""font-size:50px; font-weight:bold;""
                            >disgust</p>
                            <div style=""width:240px; margin: auto;"">
                                <img src=""images/map05_RdGy_scaleDef_orientDef_090.png"" style= ""width:200px""alt=""img"">
                            </div>
                        </div>",0.615,"",0,"",NA,"","images/map05_RdGy_scaleDef_orientDef_090.png","disgust",1,5,5,"RdGy","orientDef","scaleDef","090",NA,NA
"","","","","","html-slider-response",85,361016,"0.0-79.0","l0520l2kpy",35,NA,"<div style=""width:500px;"">
                            <p style=""font-size:50px; font-weight:bold;""
                            >disgust</p>
                            <div style=""width:240px; margin: auto;"">
                                <img src=""images/map26_RdPu_scaleRev_orientDef_180.png"" style= ""width:200px""alt=""img"">
                            </div>
                        </div>",0.1175,"",0,"",NA,"","images/map26_RdPu_scaleRev_orientDef_180.png","disgust",1,26,26,"RdPu","orientDef","scaleRev","180",NA,NA
"","","","","","html-slider-response",86,362266,"0.0-80.0","l0520l2kpy",35,NA,"<div style=""width:500px;"">
                            <p style=""font-size:50px; font-weight:bold;""
                            >disgust</p>
                            <div style=""width:240px; margin: auto;"">
                                <img src=""images/map23_Reds_scaleRev_orientDef_000.png"" style= ""width:200px""alt=""img"">
                            </div>
                        </div>",0.0825,"",0,"",NA,"","images/map23_Reds_scaleRev_orientDef_000.png","disgust",1,23,23,"Reds","orientDef","scaleRev","000",NA,NA
"","","","","","html-slider-response",87,363783,"0.0-81.0","l0520l2kpy",35,NA,"<div style=""width:500px;"">
                            <p style=""font-size:50px; font-weight:bold;""
                            >disgust</p>
                            <div style=""width:240px; margin: auto;"">
                                <img src=""images/map05_RdYlBu_scaleRev_orientMir_180.png"" style= ""width:200px""alt=""img"">
                            </div>
                        </div>",0.015,"",0,"",NA,"","images/map05_RdYlBu_scaleRev_orientMir_180.png","disgust",1,5,5,"RdYlBu","orientMir","scaleRev","180",NA,NA
"","","","","","html-slider-response",88,365432,"0.0-82.0","l0520l2kpy",35,NA,"<div style=""width:500px;"">
                            <p style=""font-size:50px; font-weight:bold;""
                            >disgust</p>
                            <div style=""width:240px; margin: auto;"">
                                <img src=""images/map13_magma_scaleDef_orientDef_090.png"" style= ""width:200px""alt=""img"">
                            </div>
                        </div>",0.03,"",0,"",NA,"","images/map13_magma_scaleDef_orientDef_090.png","disgust",1,13,13,"magma","orientDef","scaleDef","090",NA,NA
"","","","","","html-slider-response",89,367350,"0.0-83.0","l0520l2kpy",35,NA,"<div style=""width:500px;"">
                            <p style=""font-size:50px; font-weight:bold;""
                            >disgust</p>
                            <div style=""width:240px; margin: auto;"">
                                <img src=""images/map12_viridis_scaleDef_orientDef_270.png"" style= ""width:200px""alt=""img"">
                            </div>
                        </div>",0.6175,"",0,"",NA,"","images/map12_viridis_scaleDef_orientDef_270.png","disgust",1,12,12,"viridis","orientDef","scaleDef","270",NA,NA
"","","","","","html-slider-response",90,369050,"0.0-84.0","l0520l2kpy",35,NA,"<div style=""width:500px;"">
                            <p style=""font-size:50px; font-weight:bold;""
                            >disgust</p>
                            <div style=""width:240px; margin: auto;"">
                                <img src=""images/map13_Greys_scaleDef_orientMir_090.png"" style= ""width:200px""alt=""img"">
                            </div>
                        </div>",0.38,"",0,"",NA,"","images/map13_Greys_scaleDef_orientMir_090.png","disgust",1,13,13,"Greys","orientMir","scaleDef","090",NA,NA
"","","","","","html-slider-response",91,370766,"0.0-85.0","l0520l2kpy",35,NA,"<div style=""width:500px;"">
                            <p style=""font-size:50px; font-weight:bold;""
                            >disgust</p>
                            <div style=""width:240px; margin: auto;"">
                                <img src=""images/map05_RdBu_scaleDef_orientDef_270.png"" style= ""width:200px""alt=""img"">
                            </div>
                        </div>",0.335,"",0,"",NA,"","images/map05_RdBu_scaleDef_orientDef_270.png","disgust",1,5,5,"RdBu","orientDef","scaleDef","270",NA,NA
"","","","","","html-slider-response",92,373249,"0.0-86.0","l0520l2kpy",35,NA,"<div style=""width:500px;"">
                            <p style=""font-size:50px; font-weight:bold;""
                            >disgust</p>
                            <div style=""width:240px; margin: auto;"">
                                <img src=""images/map15_Purples_scaleRev_orientDef_000.png"" style= ""width:200px""alt=""img"">
                            </div>
                        </div>",0.595,"",0,"",NA,"","images/map15_Purples_scaleRev_orientDef_000.png","disgust",1,15,15,"Purples","orientDef","scaleRev","000",NA,NA
"","","","","","html-slider-response",93,375900,"0.0-87.0","l0520l2kpy",35,NA,"<div style=""width:500px;"">
                            <p style=""font-size:50px; font-weight:bold;""
                            >disgust</p>
                            <div style=""width:240px; margin: auto;"">
                                <img src=""images/map23_YlOrBr_scaleDef_orientDef_090.png"" style= ""width:200px""alt=""img"">
                            </div>
                        </div>",0.66,"",0,"",NA,"","images/map23_YlOrBr_scaleDef_orientDef_090.png","disgust",1,23,23,"YlOrBr","orientDef","scaleDef","090",NA,NA
"","","","","","html-slider-response",94,377631,"0.0-88.0","l0520l2kpy",35,NA,"<div style=""width:500px;"">
                            <p style=""font-size:50px; font-weight:bold;""
                            >disgust</p>
                            <div style=""width:240px; margin: auto;"">
                                <img src=""images/map15_Blues_scaleDef_orientDef_090.png"" style= ""width:200px""alt=""img"">
                            </div>
                        </div>",0.1625,"",0,"",NA,"","images/map15_Blues_scaleDef_orientDef_090.png","disgust",1,15,15,"Blues","orientDef","scaleDef","090",NA,NA
"","","","","","html-slider-response",95,378782,"0.0-89.0","l0520l2kpy",35,NA,"<div style=""width:500px;"">
                            <p style=""font-size:50px; font-weight:bold;""
                            >disgust</p>
                            <div style=""width:240px; margin: auto;"">
                                <img src=""images/map27_PuBu_scaleRev_orientDef_000.png"" style= ""width:200px""alt=""img"">
                            </div>
                        </div>",0.1625,"",0,"",NA,"","images/map27_PuBu_scaleRev_orientDef_000.png","disgust",1,27,27,"PuBu","orientDef","scaleRev","000",NA,NA
"","","","","","html-slider-response",96,382216,"0.0-90.0","l0520l2kpy",35,NA,"<div style=""width:500px;"">
                            <p style=""font-size:50px; font-weight:bold;""
                            >disgust</p>
                            <div style=""width:240px; margin: auto;"">
                                <img src=""images/map02_PRGn_scaleRev_orientMir_000.png"" style= ""width:200px""alt=""img"">
                            </div>
                        </div>",0.845,"",0,"",NA,"","images/map02_PRGn_scaleRev_orientMir_000.png","disgust",1,2,2,"PRGn","orientMir","scaleRev","000",NA,NA
"","","","","","html-slider-response",97,384166,"0.0-91.0","l0520l2kpy",35,NA,"<div style=""width:500px;"">
                            <p style=""font-size:50px; font-weight:bold;""
                            >disgust</p>
                            <div style=""width:240px; margin: auto;"">
                                <img src=""images/map12_plasma_scaleDef_orientMir_090.png"" style= ""width:200px""alt=""img"">
                            </div>
                        </div>",0.315,"",0,"",NA,"","images/map12_plasma_scaleDef_orientMir_090.png","disgust",1,12,12,"plasma","orientMir","scaleDef","090",NA,NA
"","","","","","html-slider-response",98,386364,"0.0-92.0","l0520l2kpy",35,NA,"<div style=""width:500px;"">
                            <p style=""font-size:50px; font-weight:bold;""
                            >disgust</p>
                            <div style=""width:240px; margin: auto;"">
                                <img src=""images/map05_RdYlGn_scaleDef_orientMir_270.png"" style= ""width:200px""alt=""img"">
                            </div>
                        </div>",0.7675,"",0,"",NA,"","images/map05_RdYlGn_scaleDef_orientMir_270.png","disgust",1,5,5,"RdYlGn","orientMir","scaleDef","270",NA,NA
"","","","","","html-slider-response",99,388466,"0.0-93.0","l0520l2kpy",35,NA,"<div style=""width:500px;"">
                            <p style=""font-size:50px; font-weight:bold;""
                            >disgust</p>
                            <div style=""width:240px; margin: auto;"">
                                <img src=""images/map10_berlin_scaleRev_orientDef_180.png"" style= ""width:200px""alt=""img"">
                            </div>
                        </div>",0.005,"",0,"",NA,"","images/map10_berlin_scaleRev_orientDef_180.png","disgust",1,10,10,"berlin","orientDef","scaleRev","180",NA,NA
"","","","","","html-slider-response",100,390666,"0.0-94.0","l0520l2kpy",35,NA,"<div style=""width:500px;"">
                            <p style=""font-size:50px; font-weight:bold;""
                            >disgust</p>
                            <div style=""width:240px; margin: auto;"">
                                <img src=""images/map13_cividis_scaleDef_orientDef_270.png"" style= ""width:200px""alt=""img"">
                            </div>
                        </div>",0.675,"",0,"",NA,"","images/map13_cividis_scaleDef_orientDef_270.png","disgust",1,13,13,"cividis","orientDef","scaleDef","270",NA,NA
"","","","","","html-button-response",101,393088,"0.0-95.0","l0520l2kpy",35,1920,"<p>Great Job! You've finished block 1.<br></br> You have 4 block(s) left to go.<br></br></p>",0.5,"",NA,"",NA,"","","",NA,NA,NA,"","","","",NA,NA
"","","","","","html-button-response",102,396105,"0.0-96.0","l0520l2kpy",35,3016,"<p>In this block of trials, you will be asked to rate how much you associate each map with:</p > <p style = 'font-size:150%; font-weight: bold'>fearful</p><br></br>",0.5,"",NA,"",NA,"","","",NA,NA,NA,"","","","",NA,NA
"","","","","","html-slider-response",103,407949,"0.0-97.0","l0520l2kpy",35,NA,"<div style=""width:500px;"">
                            <p style=""font-size:50px; font-weight:bold;""
                            >fearful</p>
                            <div style=""width:240px; margin: auto;"">
                                <img src=""images/map10_managua_scaleRev_orientMir_000.png"" style= ""width:200px""alt=""img"">
                            </div>
                        </div>",0.215,"",0,"",NA,"","images/map10_managua_scaleRev_orientMir_000.png","fearful",1,10,10,"managua","orientMir","scaleRev","000",NA,NA
"","","","","","html-slider-response",104,411216,"0.0-98.0","l0520l2kpy",35,NA,"<div style=""width:500px;"">
                            <p style=""font-size:50px; font-weight:bold;""
                            >fearful</p>
                            <div style=""width:240px; margin: auto;"">
                                <img src=""images/map23_OrRd_scaleRev_orientMir_180.png"" style= ""width:200px""alt=""img"">
                            </div>
                        </div>",0.675,"",0,"",NA,"","images/map23_OrRd_scaleRev_orientMir_180.png","fearful",1,23,23,"OrRd","orientMir","scaleRev","180",NA,NA
"","","","","","html-slider-response",105,413333,"0.0-99.0","l0520l2kpy",35,NA,"<div style=""width:500px;"">
                            <p style=""font-size:50px; font-weight:bold;""
                            >fearful</p>
                            <div style=""width:240px; margin: auto;"">
                                <img src=""images/map07_RdYlGn_scaleRev_orientDef_000.png"" style= ""width:200px""alt=""img"">
                            </div>
                        </div>",0.8325,"",0,"",NA,"","images/map07_RdYlGn_scaleRev_orientDef_000.png","fearful",1,7,7,"RdYlGn","orientDef","scaleRev","000",NA,NA
"","","","","","html-slider-response",106,415716,"0.0-100.0","l0520l2kpy",35,NA,"<div style=""width:500px;"">
                            <p style=""font-size:50px; font-weight:bold;""
                            >fearful</p>
                            <div style=""width:240px; margin: auto;"">
                                <img src=""images/map02_BrBG_scaleRev_orientMir_180.png"" style= ""width:200px""alt=""img"">
                            </div>
                        </div>",0.7325,"",0,"",NA,"","images/map02_BrBG_scaleRev_orientMir_180.png","fearful",1,2,2,"BrBG","orientMir","scaleRev","180",NA,NA
"","","","","","html-slider-response",107,419549,"0.0-101.0","l0520l2kpy",35,NA,"<div style=""width:500px;"">
                            <p style=""font-size:50px; font-weight:bold;""
                            >fearful</p>
                            <div style=""width:240px; margin: auto;"">
                                <img src=""images/map13_Purples_scaleDef_orientMir_270.png"" style= ""width:200px""alt=""img"">
                            </div>
                        </div>",0.6175,"",0,"",NA,"","images/map13_Purples_scaleDef_orientMir_270.png","fearful",1,13,13,"Purples","orientMir","scaleDef","270",NA,NA
"","","","","","html-slider-response",108,421716,"0.0-102.0","l0520l2kpy",35,NA,"<div style=""width:500px;"">
                            <p style=""font-size:50px; font-weight:bold;""
                            >fearful</p>
                            <div style=""width:240px; margin: auto;"">
                                <img src=""images/map27_YlGnBu_scaleRev_orientDef_180.png"" style= ""width:200px""alt=""img"">
                            </div>
                        </div>",0.18,"",0,"",NA,"","images/map27_YlGnBu_scaleRev_orientDef_180.png","fearful",1,27,27,"YlGnBu","orientDef","scaleRev","180",NA,NA
"","","","","","html-slider-response",109,424566,"0.0-103.0","l0520l2kpy",35,NA,"<div style=""width:500px;"">
                            <p style=""font-size:50px; font-weight:bold;""
                            >fearful</p>
                            <div style=""width:240px; margin: auto;"">
                                <img src=""images/map05_RdYlGn_scaleDef_orientMir_270.png"" style= ""width:200px""alt=""img"">
                            </div>
                        </div>",0.605,"",0,"",NA,"","images/map05_RdYlGn_scaleDef_orientMir_270.png","fearful",1,5,5,"RdYlGn","orientMir","scaleDef","270",NA,NA
"","","","","","html-slider-response",110,426883,"0.0-104.0","l0520l2kpy",35,NA,"<div style=""width:500px;"">
                            <p style=""font-size:50px; font-weight:bold;""
                            >fearful</p>
                            <div style=""width:240px; margin: auto;"">
                                <img src=""images/map26_BuPu_scaleRev_orientMir_000.png"" style= ""width:200px""alt=""img"">
                            </div>
                        </div>",0.72,"",0,"",NA,"","images/map26_BuPu_scaleRev_orientMir_000.png","fearful",1,26,26,"BuPu","orientMir","scaleRev","000",NA,NA
"","","","","","html-slider-response",111,430000,"0.0-105.0","l0520l2kpy",35,NA,"<div style=""width:500px;"">
                            <p style=""font-size:50px; font-weight:bold;""
                            >fearful</p>
                            <div style=""width:240px; margin: auto;"">
                                <img src=""images/map12_turbo_scaleRev_orientDef_180.png"" style= ""width:200px""alt=""img"">
                            </div>
                        </div>",0.64,"",0,"",NA,"","images/map12_turbo_scaleRev_orientDef_180.png","fearful",1,12,12,"turbo","orientDef","scaleRev","180",NA,NA
"","","","","","html-slider-response",112,432783,"0.0-106.0","l0520l2kpy",35,NA,"<div style=""width:500px;"">
                            <p style=""font-size:50px; font-weight:bold;""
                            >fearful</p>
                            <div style=""width:240px; margin: auto;"">
                                <img src=""images/map27_BuGn_scaleRev_orientMir_180.png"" style= ""width:200px""alt=""img"">
                            </div>
                        </div>",0.265,"",0,"",NA,"","images/map27_BuGn_scaleRev_orientMir_180.png","fearful",1,27,27,"BuGn","orientMir","scaleRev","180",NA,NA
"","","","","","html-slider-response",113,435532,"0.0-107.0","l0520l2kpy",35,NA,"<div style=""width:500px;"">
                            <p style=""font-size:50px; font-weight:bold;""
                            >fearful</p>
                            <div style=""width:240px; margin: auto;"">
                                <img src=""images/map13_Greys_scaleDef_orientMir_090.png"" style= ""width:200px""alt=""img"">
                            </div>
                        </div>",1,"",0,"",NA,"","images/map13_Greys_scaleDef_orientMir_090.png","fearful",1,13,13,"Greys","orientMir","scaleDef","090",NA,NA
"","","","","","html-slider-response",114,438316,"0.0-108.0","l0520l2kpy",35,NA,"<div style=""width:500px;"">
                            <p style=""font-size:50px; font-weight:bold;""
                            >fearful</p>
                            <div style=""width:240px; margin: auto;"">
                                <img src=""images/map12_plasma_scaleRev_orientMir_180.png"" style= ""width:200px""alt=""img"">
                            </div>
                        </div>",0.635,"",0,"",NA,"","images/map12_plasma_scaleRev_orientMir_180.png","fearful",1,12,12,"plasma","orientMir","scaleRev","180",NA,NA
"","","","","","html-slider-response",115,440333,"0.0-109.0","l0520l2kpy",35,NA,"<div style=""width:500px;"">
                            <p style=""font-size:50px; font-weight:bold;""
                            >fearful</p>
                            <div style=""width:240px; margin: auto;"">
                                <img src=""images/map15_Blues_scaleDef_orientDef_090.png"" style= ""width:200px""alt=""img"">
                            </div>
                        </div>",0.0325,"",0,"",NA,"","images/map15_Blues_scaleDef_orientDef_090.png","fearful",1,15,15,"Blues","orientDef","scaleDef","090",NA,NA
"","","","","","html-slider-response",116,442684,"0.0-110.0","l0520l2kpy",35,NA,"<div style=""width:500px;"">
                            <p style=""font-size:50px; font-weight:bold;""
                            >fearful</p>
                            <div style=""width:240px; margin: auto;"">
                                <img src=""images/map05_RdBu_scaleRev_orientMir_000.png"" style= ""width:200px""alt=""img"">
                            </div>
                        </div>",0.58,"",0,"",NA,"","images/map05_RdBu_scaleRev_orientMir_000.png","fearful",1,5,5,"RdBu","orientMir","scaleRev","000",NA,NA
"","","","","","html-slider-response",117,444383,"0.0-111.0","l0520l2kpy",35,NA,"<div style=""width:500px;"">
                            <p style=""font-size:50px; font-weight:bold;""
                            >fearful</p>
                            <div style=""width:240px; margin: auto;"">
                                <img src=""images/map27_PuBu_scaleRev_orientDef_000.png"" style= ""width:200px""alt=""img"">
                            </div>
                        </div>",0.2025,"",0,"",NA,"","images/map27_PuBu_scaleRev_orientDef_000.png","fearful",1,27,27,"PuBu","orientDef","scaleRev","000",NA,NA
"","","","","","html-slider-response",118,446617,"0.0-112.0","l0520l2kpy",35,NA,"<div style=""width:500px;"">
                            <p style=""font-size:50px; font-weight:bold;""
                            >fearful</p>
                            <div style=""width:240px; margin: auto;"">
                                <img src=""images/map02_PRGn_scaleDef_orientDef_270.png"" style= ""width:200px""alt=""img"">
                            </div>
                        </div>",0.8525,"",0,"",NA,"","images/map02_PRGn_scaleDef_orientDef_270.png","fearful",1,2,2,"PRGn","orientDef","scaleDef","270",NA,NA
"","","","","","html-slider-response",119,448498,"0.0-113.0","l0520l2kpy",35,NA,"<div style=""width:500px;"">
                            <p style=""font-size:50px; font-weight:bold;""
                            >fearful</p>
                            <div style=""width:240px; margin: auto;"">
                                <img src=""images/map23_YlOrBr_scaleRev_orientDef_180.png"" style= ""width:200px""alt=""img"">
                            </div>
                        </div>",0.1525,"",0,"",NA,"","images/map23_YlOrBr_scaleRev_orientDef_180.png","fearful",1,23,23,"YlOrBr","orientDef","scaleRev","180",NA,NA
"","","","","","html-slider-response",120,450349,"0.0-114.0","l0520l2kpy",35,NA,"<div style=""width:500px;"">
                            <p style=""font-size:50px; font-weight:bold;""
                            >fearful</p>
                            <div style=""width:240px; margin: auto;"">
                                <img src=""images/map02_BrBG_scaleDef_orientMir_090.png"" style= ""width:200px""alt=""img"">
                            </div>
                        </div>",0.6575,"",0,"",NA,"","images/map02_BrBG_scaleDef_orientMir_090.png","fearful",1,2,2,"BrBG","orientMir","scaleDef","090",NA,NA
"","","","","","html-slider-response",121,452533,"0.0-115.0","l0520l2kpy",35,NA,"<div style=""width:500px;"">
                            <p style=""font-size:50px; font-weight:bold;""
                            >fearful</p>
                            <div style=""width:240px; margin: auto;"">
                                <img src=""images/map23_PuRd_scaleDef_orientMir_270.png"" style= ""width:200px""alt=""img"">
                            </div>
                        </div>",0.0075,"",0,"",NA,"","images/map23_PuRd_scaleDef_orientMir_270.png","fearful",1,23,23,"PuRd","orientMir","scaleDef","270",NA,NA
"","","","","","html-slider-response",122,454933,"0.0-116.0","l0520l2kpy",35,NA,"<div style=""width:500px;"">
                            <p style=""font-size:50px; font-weight:bold;""
                            >fearful</p>
                            <div style=""width:240px; margin: auto;"">
                                <img src=""images/map23_YlOrRd_scaleDef_orientDef_270.png"" style= ""width:200px""alt=""img"">
                            </div>
                        </div>",0.9875,"",0,"",NA,"","images/map23_YlOrRd_scaleDef_orientDef_270.png","fearful",1,23,23,"YlOrRd","orientDef","scaleDef","270",NA,NA
"","","","","","html-slider-response",123,456883,"0.0-117.0","l0520l2kpy",35,NA,"<div style=""width:500px;"">
                            <p style=""font-size:50px; font-weight:bold;""
                            >fearful</p>
                            <div style=""width:240px; margin: auto;"">
                                <img src=""images/map13_cividis_scaleRev_orientMir_000.png"" style= ""width:200px""alt=""img"">
                            </div>
                        </div>",0.6275,"",0,"",NA,"","images/map13_cividis_scaleRev_orientMir_000.png","fearful",1,13,13,"cividis","orientMir","scaleRev","000",NA,NA
"","","","","","html-slider-response",124,459033,"0.0-118.0","l0520l2kpy",35,NA,"<div style=""width:500px;"">
                            <p style=""font-size:50px; font-weight:bold;""
                            >fearful</p>
                            <div style=""width:240px; margin: auto;"">
                                <img src=""images/map13_Greys_scaleRev_orientMir_180.png"" style= ""width:200px""alt=""img"">
                            </div>
                        </div>",1,"",0,"",NA,"","images/map13_Greys_scaleRev_orientMir_180.png","fearful",1,13,13,"Greys","orientMir","scaleRev","180",NA,NA
"","","","","","html-slider-response",125,461149,"0.0-119.0","l0520l2kpy",35,NA,"<div style=""width:500px;"">
                            <p style=""font-size:50px; font-weight:bold;""
                            >fearful</p>
                            <div style=""width:240px; margin: auto;"">
                                <img src=""images/map07_bwr_scaleRev_orientMir_180.png"" style= ""width:200px""alt=""img"">
                            </div>
                        </div>",0.6475,"",0,"",NA,"","images/map07_bwr_scaleRev_orientMir_180.png","fearful",1,7,7,"bwr","orientMir","scaleRev","180",NA,NA
"","","","","","html-slider-response",126,463866,"0.0-120.0","l0520l2kpy",35,NA,"<div style=""width:500px;"">
                            <p style=""font-size:50px; font-weight:bold;""
                            >fearful</p>
                            <div style=""width:240px; margin: auto;"">
                                <img src=""images/map26_RdPu_scaleDef_orientDef_090.png"" style= ""width:200px""alt=""img"">
                            </div>
                        </div>",0.0225,"",0,"",NA,"","images/map26_RdPu_scaleDef_orientDef_090.png","fearful",1,26,26,"RdPu","orientDef","scaleDef","090",NA,NA
"","","","","","html-slider-response",127,465784,"0.0-121.0","l0520l2kpy",35,NA,"<div style=""width:500px;"">
                            <p style=""font-size:50px; font-weight:bold;""
                            >fearful</p>
                            <div style=""width:240px; margin: auto;"">
                                <img src=""images/map05_RdGy_scaleDef_orientDef_090.png"" style= ""width:200px""alt=""img"">
                            </div>
                        </div>",0.615,"",0,"",NA,"","images/map05_RdGy_scaleDef_orientDef_090.png","fearful",1,5,5,"RdGy","orientDef","scaleDef","090",NA,NA
"","","","","","html-slider-response",128,468050,"0.0-122.0","l0520l2kpy",35,NA,"<div style=""width:500px;"">
                            <p style=""font-size:50px; font-weight:bold;""
                            >fearful</p>
                            <div style=""width:240px; margin: auto;"">
                                <img src=""images/map15_Greens_scaleRev_orientMir_000.png"" style= ""width:200px""alt=""img"">
                            </div>
                        </div>",0.795,"",0,"",NA,"","images/map15_Greens_scaleRev_orientMir_000.png","fearful",1,15,15,"Greens","orientMir","scaleRev","000",NA,NA
"","","","","","html-slider-response",129,469916,"0.0-123.0","l0520l2kpy",35,NA,"<div style=""width:500px;"">
                            <p style=""font-size:50px; font-weight:bold;""
                            >fearful</p>
                            <div style=""width:240px; margin: auto;"">
                                <img src=""images/map07_seismic_scaleDef_orientMir_270.png"" style= ""width:200px""alt=""img"">
                            </div>
                        </div>",0.965,"",0,"",NA,"","images/map07_seismic_scaleDef_orientMir_270.png","fearful",1,7,7,"seismic","orientMir","scaleDef","270",NA,NA
"","","","","","html-slider-response",130,471700,"0.0-124.0","l0520l2kpy",35,NA,"<div style=""width:500px;"">
                            <p style=""font-size:50px; font-weight:bold;""
                            >fearful</p>
                            <div style=""width:240px; margin: auto;"">
                                <img src=""images/map13_magma_scaleRev_orientDef_180.png"" style= ""width:200px""alt=""img"">
                            </div>
                        </div>",0.985,"",0,"",NA,"","images/map13_magma_scaleRev_orientDef_180.png","fearful",1,13,13,"magma","orientDef","scaleRev","180",NA,NA
"","","","","","html-slider-response",131,473833,"0.0-125.0","l0520l2kpy",35,NA,"<div style=""width:500px;"">
                            <p style=""font-size:50px; font-weight:bold;""
                            >fearful</p>
                            <div style=""width:240px; margin: auto;"">
                                <img src=""images/map02_PuOr_scaleDef_orientMir_270.png"" style= ""width:200px""alt=""img"">
                            </div>
                        </div>",0.795,"",0,"",NA,"","images/map02_PuOr_scaleDef_orientMir_270.png","fearful",1,2,2,"PuOr","orientMir","scaleDef","270",NA,NA
"","","","","","html-slider-response",132,475367,"0.0-126.0","l0520l2kpy",35,NA,"<div style=""width:500px;"">
                            <p style=""font-size:50px; font-weight:bold;""
                            >fearful</p>
                            <div style=""width:240px; margin: auto;"">
                                <img src=""images/map02_PiYG_scaleRev_orientDef_180.png"" style= ""width:200px""alt=""img"">
                            </div>
                        </div>",0.8475,"",0,"",NA,"","images/map02_PiYG_scaleRev_orientDef_180.png","fearful",1,2,2,"PiYG","orientDef","scaleRev","180",NA,NA
"","","","","","html-slider-response",133,477232,"0.0-127.0","l0520l2kpy",35,NA,"<div style=""width:500px;"">
                            <p style=""font-size:50px; font-weight:bold;""
                            >fearful</p>
                            <div style=""width:240px; margin: auto;"">
                                <img src=""images/map13_magma_scaleDef_orientDef_090.png"" style= ""width:200px""alt=""img"">
                            </div>
                        </div>",0.915,"",0,"",NA,"","images/map13_magma_scaleDef_orientDef_090.png","fearful",1,13,13,"magma","orientDef","scaleDef","090",NA,NA
"","","","","","html-slider-response",134,479683,"0.0-128.0","l0520l2kpy",35,NA,"<div style=""width:500px;"">
                            <p style=""font-size:50px; font-weight:bold;""
                            >fearful</p>
                            <div style=""width:240px; margin: auto;"">
                                <img src=""images/map26_GnBu_scaleDef_orientMir_090.png"" style= ""width:200px""alt=""img"">
                            </div>
                        </div>",0.17,"",0,"",NA,"","images/map26_GnBu_scaleDef_orientMir_090.png","fearful",1,26,26,"GnBu","orientMir","scaleDef","090",NA,NA
"","","","","","html-slider-response",135,482332,"0.0-129.0","l0520l2kpy",35,NA,"<div style=""width:500px;"">
                            <p style=""font-size:50px; font-weight:bold;""
                            >fearful</p>
                            <div style=""width:240px; margin: auto;"">
                                <img src=""images/map05_RdYlBu_scaleRev_orientMir_180.png"" style= ""width:200px""alt=""img"">
                            </div>
                        </div>",0.7375,"",0,"",NA,"","images/map05_RdYlBu_scaleRev_orientMir_180.png","fearful",1,5,5,"RdYlBu","orientMir","scaleRev","180",NA,NA
"","","","","","html-slider-response",136,484665,"0.0-130.0","l0520l2kpy",35,NA,"<div style=""width:500px;"">
                            <p style=""font-size:50px; font-weight:bold;""
                            >fearful</p>
                            <div style=""width:240px; margin: auto;"">
                                <img src=""images/map15_Oranges_scaleDef_orientMir_090.png"" style= ""width:200px""alt=""img"">
                            </div>
                        </div>",0.9375,"",0,"",NA,"","images/map15_Oranges_scaleDef_orientMir_090.png","fearful",1,15,15,"Oranges","orientMir","scaleDef","090",NA,NA
"","","","","","html-slider-response",137,486800,"0.0-131.0","l0520l2kpy",35,NA,"<div style=""width:500px;"">
                            <p style=""font-size:50px; font-weight:bold;""
                            >fearful</p>
                            <div style=""width:240px; margin: auto;"">
                                <img src=""images/map12_inferno_scaleDef_orientMir_270.png"" style= ""width:200px""alt=""img"">
                            </div>
                        </div>",0.99,"",0,"",NA,"","images/map12_inferno_scaleDef_orientMir_270.png","fearful",1,12,12,"inferno","orientMir","scaleDef","270",NA,NA
"","","","","","html-slider-response",138,488899,"0.0-132.0","l0520l2kpy",35,NA,"<div style=""width:500px;"">
                            <p style=""font-size:50px; font-weight:bold;""
                            >fearful</p>
                            <div style=""width:240px; margin: auto;"">
                                <img src=""images/map02_PRGn_scaleRev_orientMir_000.png"" style= ""width:200px""alt=""img"">
                            </div>
                        </div>",0.7125,"",0,"",NA,"","images/map02_PRGn_scaleRev_orientMir_000.png","fearful",1,2,2,"PRGn","orientMir","scaleRev","000",NA,NA
"","","","","","html-slider-response",139,490966,"0.0-133.0","l0520l2kpy",35,NA,"<div style=""width:500px;"">
                            <p style=""font-size:50px; font-weight:bold;""
                            >fearful</p>
                            <div style=""width:240px; margin: auto;"">
                                <img src=""images/map27_YlGnBu_scaleDef_orientDef_090.png"" style= ""width:200px""alt=""img"">
                            </div>
                        </div>",0.0375,"",0,"",NA,"","images/map27_YlGnBu_scaleDef_orientDef_090.png","fearful",1,27,27,"YlGnBu","orientDef","scaleDef","090",NA,NA
"","","","","","html-slider-response",140,492799,"0.0-134.0","l0520l2kpy",35,NA,"<div style=""width:500px;"">
                            <p style=""font-size:50px; font-weight:bold;""
                            >fearful</p>
                            <div style=""width:240px; margin: auto;"">
                                <img src=""images/map13_inferno_scaleRev_orientDef_000.png"" style= ""width:200px""alt=""img"">
                            </div>
                        </div>",0.7025,"",0,"",NA,"","images/map13_inferno_scaleRev_orientDef_000.png","fearful",1,13,13,"inferno","orientDef","scaleRev","000",NA,NA
"","","","","","html-slider-response",141,495767,"0.0-135.0","l0520l2kpy",35,NA,"<div style=""width:500px;"">
                            <p style=""font-size:50px; font-weight:bold;""
                            >fearful</p>
                            <div style=""width:240px; margin: auto;"">
                                <img src=""images/map15_Reds_scaleDef_orientMir_270.png"" style= ""width:200px""alt=""img"">
                            </div>
                        </div>",0.775,"",0,"",NA,"","images/map15_Reds_scaleDef_orientMir_270.png","fearful",1,15,15,"Reds","orientMir","scaleDef","270",NA,NA
"","","","","","html-slider-response",142,497483,"0.0-136.0","l0520l2kpy",35,NA,"<div style=""width:500px;"">
                            <p style=""font-size:50px; font-weight:bold;""
                            >fearful</p>
                            <div style=""width:240px; margin: auto;"">
                                <img src=""images/map13_cividis_scaleDef_orientDef_270.png"" style= ""width:200px""alt=""img"">
                            </div>
                        </div>",0.5925,"",0,"",NA,"","images/map13_cividis_scaleDef_orientDef_270.png","fearful",1,13,13,"cividis","orientDef","scaleDef","270",NA,NA
"","","","","","html-button-response",143,500705,"0.0-137.0","l0520l2kpy",35,2719,"<p>You are doing great!<br></br> You are halway done with the current block. When you are ready to continue, click the 'Continue' button.</p>",0.5,"",NA,"",NA,"","","",NA,NA,NA,"","","","",NA,NA
"","","","","","html-slider-response",144,502083,"0.0-138.0","l0520l2kpy",35,NA,"<div style=""width:500px;"">
                            <p style=""font-size:50px; font-weight:bold;""
                            >fearful</p>
                            <div style=""width:240px; margin: auto;"">
                                <img src=""images/map07_coolwarm_scaleRev_orientMir_000.png"" style= ""width:200px""alt=""img"">
                            </div>
                        </div>",0.8625,"",0,"",NA,"","images/map07_coolwarm_scaleRev_orientMir_000.png","fearful",1,7,7,"coolwarm","orientMir","scaleRev","000",NA,NA
"","","","","","html-slider-response",145,503916,"0.0-139.0","l0520l2kpy",35,NA,"<div style=""width:500px;"">
                            <p style=""font-size:50px; font-weight:bold;""
                            >fearful</p>
                            <div style=""width:240px; margin: auto;"">
                                <img src=""images/map15_Blues_scaleRev_orientDef_180.png"" style= ""width:200px""alt=""img"">
                            </div>
                        </div>",0.1,"",0,"",NA,"","images/map15_Blues_scaleRev_orientDef_180.png","fearful",1,15,15,"Blues","orientDef","scaleRev","180",NA,NA
"","","","","","html-slider-response",146,506600,"0.0-140.0","l0520l2kpy",35,NA,"<div style=""width:500px;"">
                            <p style=""font-size:50px; font-weight:bold;""
                            >fearful</p>
                            <div style=""width:240px; margin: auto;"">
                                <img src=""images/map10_vanimo_scaleDef_orientMir_090.png"" style= ""width:200px""alt=""img"">
                            </div>
                        </div>",0.995,"",0,"",NA,"","images/map10_vanimo_scaleDef_orientMir_090.png","fearful",1,10,10,"vanimo","orientMir","scaleDef","090",NA,NA
"","","","","","html-slider-response",147,508466,"0.0-141.0","l0520l2kpy",35,NA,"<div style=""width:500px;"">
                            <p style=""font-size:50px; font-weight:bold;""
                            >fearful</p>
                            <div style=""width:240px; margin: auto;"">
                                <img src=""images/map10_seismic_scaleRev_orientDef_000.png"" style= ""width:200px""alt=""img"">
                            </div>
                        </div>",0.995,"",0,"",NA,"","images/map10_seismic_scaleRev_orientDef_000.png","fearful",1,10,10,"seismic","orientDef","scaleRev","000",NA,NA
"","","","","","html-slider-response",148,511899,"0.0-142.0","l0520l2kpy",35,NA,"<div style=""width:500px;"">
                            <p style=""font-size:50px; font-weight:bold;""
                            >fearful</p>
                            <div style=""width:240px; margin: auto;"">
                                <img src=""images/map10_managua_scaleDef_orientDef_270.png"" style= ""width:200px""alt=""img"">
                            </div>
                        </div>",0.285,"",0,"",NA,"","images/map10_managua_scaleDef_orientDef_270.png","fearful",1,10,10,"managua","orientDef","scaleDef","270",NA,NA
"","","","","","html-slider-response",149,514399,"0.0-143.0","l0520l2kpy",35,NA,"<div style=""width:500px;"">
                            <p style=""font-size:50px; font-weight:bold;""
                            >fearful</p>
                            <div style=""width:240px; margin: auto;"">
                                <img src=""images/map10_berlin_scaleDef_orientDef_090.png"" style= ""width:200px""alt=""img"">
                            </div>
                        </div>",0.235,"",0,"",NA,"","images/map10_berlin_scaleDef_orientDef_090.png","fearful",1,10,10,"berlin","orientDef","scaleDef","090",NA,NA
"","","","","","html-slider-response",150,515883,"0.0-144.0","l0520l2kpy",35,NA,"<div style=""width:500px;"">
                            <p style=""font-size:50px; font-weight:bold;""
                            >fearful</p>
                            <div style=""width:240px; margin: auto;"">
                                <img src=""images/map10_berlin_scaleRev_orientDef_180.png"" style= ""width:200px""alt=""img"">
                            </div>
                        </div>",0.245,"",0,"",NA,"","images/map10_berlin_scaleRev_orientDef_180.png","fearful",1,10,10,"berlin","orientDef","scaleRev","180",NA,NA
"","","","","","html-slider-response",151,517517,"0.0-145.0","l0520l2kpy",35,NA,"<div style=""width:500px;"">
                            <p style=""font-size:50px; font-weight:bold;""
                            >fearful</p>
                            <div style=""width:240px; margin: auto;"">
                                <img src=""images/map15_Greens_scaleDef_orientDef_270.png"" style= ""width:200px""alt=""img"">
                            </div>
                        </div>",0.855,"",0,"",NA,"","images/map15_Greens_scaleDef_orientDef_270.png","fearful",1,15,15,"Greens","orientDef","scaleDef","270",NA,NA
"","","","","","html-slider-response",152,518934,"0.0-146.0","l0520l2kpy",35,NA,"<div style=""width:500px;"">
                            <p style=""font-size:50px; font-weight:bold;""
                            >fearful</p>
                            <div style=""width:240px; margin: auto;"">
                                <img src=""images/map12_gist_earth_scaleRev_orientDef_000.png"" style= ""width:200px""alt=""img"">
                            </div>
                        </div>",0.7825,"",0,"",NA,"","images/map12_gist_earth_scaleRev_orientDef_000.png","fearful",1,12,12,"gist","scaleRev","earth","orientDef",NA,NA
"","","","","","html-slider-response",153,521067,"0.0-147.0","l0520l2kpy",35,NA,"<div style=""width:500px;"">
                            <p style=""font-size:50px; font-weight:bold;""
                            >fearful</p>
                            <div style=""width:240px; margin: auto;"">
                                <img src=""images/map26_BuPu_scaleDef_orientDef_270.png"" style= ""width:200px""alt=""img"">
                            </div>
                        </div>",0.8475,"",0,"",NA,"","images/map26_BuPu_scaleDef_orientDef_270.png","fearful",1,26,26,"BuPu","orientDef","scaleDef","270",NA,NA
"","","","","","html-slider-response",154,523683,"0.0-148.0","l0520l2kpy",35,NA,"<div style=""width:500px;"">
                            <p style=""font-size:50px; font-weight:bold;""
                            >fearful</p>
                            <div style=""width:240px; margin: auto;"">
                                <img src=""images/map23_YlOrBr_scaleDef_orientDef_090.png"" style= ""width:200px""alt=""img"">
                            </div>
                        </div>",0.9525,"",0,"",NA,"","images/map23_YlOrBr_scaleDef_orientDef_090.png","fearful",1,23,23,"YlOrBr","orientDef","scaleDef","090",NA,NA
"","","","","","html-slider-response",155,525916,"0.0-149.0","l0520l2kpy",35,NA,"<div style=""width:500px;"">
                            <p style=""font-size:50px; font-weight:bold;""
                            >fearful</p>
                            <div style=""width:240px; margin: auto;"">
                                <img src=""images/map23_Reds_scaleRev_orientDef_000.png"" style= ""width:200px""alt=""img"">
                            </div>
                        </div>",1,"",0,"",NA,"","images/map23_Reds_scaleRev_orientDef_000.png","fearful",1,23,23,"Reds","orientDef","scaleRev","000",NA,NA
"","","","","","html-slider-response",156,529217,"0.0-150.0","l0520l2kpy",35,NA,"<div style=""width:500px;"">
                            <p style=""font-size:50px; font-weight:bold;""
                            >fearful</p>
                            <div style=""width:240px; margin: auto;"">
                                <img src=""images/map26_GnBu_scaleRev_orientMir_180.png"" style= ""width:200px""alt=""img"">
                            </div>
                        </div>",0.345,"",0,"",NA,"","images/map26_GnBu_scaleRev_orientMir_180.png","fearful",1,26,26,"GnBu","orientMir","scaleRev","180",NA,NA
"","","","","","html-slider-response",157,530966,"0.0-151.0","l0520l2kpy",35,NA,"<div style=""width:500px;"">
                            <p style=""font-size:50px; font-weight:bold;""
                            >fearful</p>
                            <div style=""width:240px; margin: auto;"">
                                <img src=""images/map12_plasma_scaleDef_orientMir_090.png"" style= ""width:200px""alt=""img"">
                            </div>
                        </div>",0.79,"",0,"",NA,"","images/map12_plasma_scaleDef_orientMir_090.png","fearful",1,12,12,"plasma","orientMir","scaleDef","090",NA,NA
"","","","","","html-slider-response",158,533683,"0.0-152.0","l0520l2kpy",35,NA,"<div style=""width:500px;"">
                            <p style=""font-size:50px; font-weight:bold;""
                            >fearful</p>
                            <div style=""width:240px; margin: auto;"">
                                <img src=""images/map26_PuRd_scaleRev_orientDef_000.png"" style= ""width:200px""alt=""img"">
                            </div>
                        </div>",0.7,"",0,"",NA,"","images/map26_PuRd_scaleRev_orientDef_000.png","fearful",1,26,26,"PuRd","orientDef","scaleRev","000",NA,NA
"","","","","","html-slider-response",159,535282,"0.0-153.0","l0520l2kpy",35,NA,"<div style=""width:500px;"">
                            <p style=""font-size:50px; font-weight:bold;""
                            >fearful</p>
                            <div style=""width:240px; margin: auto;"">
                                <img src=""images/map05_RdGy_scaleRev_orientDef_180.png"" style= ""width:200px""alt=""img"">
                            </div>
                        </div>",0.62,"",0,"",NA,"","images/map05_RdGy_scaleRev_orientDef_180.png","fearful",1,5,5,"RdGy","orientDef","scaleRev","180",NA,NA
"","","","","","html-slider-response",160,536850,"0.0-154.0","l0520l2kpy",35,NA,"<div style=""width:500px;"">
                            <p style=""font-size:50px; font-weight:bold;""
                            >fearful</p>
                            <div style=""width:240px; margin: auto;"">
                                <img src=""images/map12_turbo_scaleDef_orientDef_090.png"" style= ""width:200px""alt=""img"">
                            </div>
                        </div>",0.74,"",0,"",NA,"","images/map12_turbo_scaleDef_orientDef_090.png","fearful",1,12,12,"turbo","orientDef","scaleDef","090",NA,NA
"","","","","","html-slider-response",161,538867,"0.0-155.0","l0520l2kpy",35,NA,"<div style=""width:500px;"">
                            <p style=""font-size:50px; font-weight:bold;""
                            >fearful</p>
                            <div style=""width:240px; margin: auto;"">
                                <img src=""images/map23_YlOrRd_scaleRev_orientMir_000.png"" style= ""width:200px""alt=""img"">
                            </div>
                        </div>",0.99,"",0,"",NA,"","images/map23_YlOrRd_scaleRev_orientMir_000.png","fearful",1,23,23,"YlOrRd","orientMir","scaleRev","000",NA,NA
"","","","","","html-slider-response",162,541000,"0.0-156.0","l0520l2kpy",35,NA,"<div style=""width:500px;"">
                            <p style=""font-size:50px; font-weight:bold;""
                            >fearful</p>
                            <div style=""width:240px; margin: auto;"">
                                <img src=""images/map05_RdBu_scaleDef_orientDef_270.png"" style= ""width:200px""alt=""img"">
                            </div>
