"success","timeout","failed_images","failed_audio","failed_video","trial_type","trial_index","time_elapsed","internal_node_id","subject_id","condition_num","rt","stimulus","response","question_order","slider_start","practiceTrial","practiceTrialNum","correct","image_path","concept","repetition","map_id","map_num","scale_name","orientation_code","mapping_code","rotation_code","ishihara_plate","correct_response"
"true","false","[]","[]","[]","preload",0,1032,"0.0-0.0","jfot3pzbtg",19,NA,"",NA,"",NA,"",NA,"","","",NA,NA,NA,"","","","",NA,NA
"","","","","","html-button-response",1,10867,"0.0-1.0","jfot3pzbtg",19,9833,"Welcome to our experiment!<p>At the bottom of this screen, you will see a button that says ""Begin Experiment"".<br>Please only click that button when you are ready to complete the 30 minute experiment in one sitting.</p><p> Once you click that button, it will not be possible to restart the experiment.",0.5,"",NA,"",NA,"","","",NA,NA,NA,"","","","",NA,NA
"true","","","","","fullscreen",2,15892,"0.0-2.0","jfot3pzbtg",19,4014,"",NA,"",NA,"",NA,"","","",NA,NA,NA,"","","","",NA,NA
"","","","","","survey-multi-select",3,114442,"0.0-3.0","jfot3pzbtg",19,98539,"",NA,"[0]",NA,"",NA,"","","",NA,NA,NA,"","","","",NA,NA
"","","","","","html-button-response",4,125501,"0.0-4.0","jfot3pzbtg",19,11055,"Welcome! <p> This experiment involves two parts: demographic information, followed by the experimental task.<p> It will take about 30 minutes to complete both parts.",0.5,"",NA,"",NA,"","","",NA,NA,NA,"","","","",NA,NA
"","","","","","survey-text",5,136855,"0.0-5.0","jfot3pzbtg",19,11320,"",NA,"",NA,"",NA,"","","",NA,NA,NA,"","","","",NA,NA
"","","","","","html-slider-response",6,221304,"0.0-6.0","jfot3pzbtg",19,84445,"<div style='text-align:left; font-size:20px; line-height:25px; width: 1000px;'>
                                During this experiment you will be asked to rate how much you associate maps with                    different concepts.<br> Below, you can see some examples of the maps you will be asked to rate. Above the maps
                    is the list of concepts.<br>You will be asked                    to rate how much you associate each map with each concept on a scale from 'not at all' to 'very much' like the
                    one below. <br><br>
                    Now, please look at the list of concepts and maps. For each concept, think about the map you associate 'very
                    much' with the concept.<br>                     When you see that map during the experiment, please rate it near the 'very much' endpoint of the
                    scale.<br>Now, please think about which map you associate 'not at all'                     with each concept. When you see that map during the experiment, please rate it near the 'not at all' endpoint
                    of the scale.<br>
                    Please use the full range of the scale. That is, if a map is somewhat associated with the concept, you would
                    click partway between the middle point and right side of the scale.                    You will be asked to rate each map for a given concept before moving on to the next concept.<br>Press the
                    'Continue' button for instructions on how to use the slider.                    <br>
                </div>

                <div style=""width: 500px; margin: 0 auto;"">
                    <!-- Centered text paragraphs -->
                    <div style=""text-align: center; width: 500px;"">
                        <p style=""font-size:25px; line-height:15px;"">
                            angry&nbsp;&nbsp;&nbsp;&nbsp;
                            sad&nbsp;&nbsp;&nbsp;&nbsp;
                            happy&nbsp;&nbsp;&nbsp;&nbsp;
                            fearful&nbsp;&nbsp;&nbsp;&nbsp;
                            disgust
                        </p>
                        <!-- <p style=""font-size:20px; line-height:15px;"">sad</p>
                        <p style=""font-size:20px;line-height:15px;"">happy</p>
                        <p style=""font-size:20px;line-height:15px;"">fearful</p>
                        <p style=""font-size:20px;line-height:15px;"">disgust</p> -->
                    </div>
            

                    <!-- Grid section -->
                   <div style=""display: flex; justify-content: center; padding-top: 15px;"">
                    <div style=""display: grid; grid-template-columns: repeat(10, 55px); grid-gap: 5px; width: auto;"">
                        <img src=""images/map07_inferno_scaleDef_orientMir_270.png"" alt=""map"" style=""width: 100%;""><img src=""images/map23_PuBu_scaleRev_orientDef_000.png"" alt=""map"" style=""width: 100%;""><img src=""images/map05_berlin_scaleRev_orientDef_180.png"" alt=""map"" style=""width: 100%;""><img src=""images/map07_gist_earth_scaleRev_orientDef_000.png"" alt=""map"" style=""width: 100%;""><img src=""images/map07_viridis_scaleDef_orientDef_270.png"" alt=""map"" style=""width: 100%;""><img src=""images/map13_YlOrRd_scaleRev_orientMir_000.png"" alt=""map"" style=""width: 100%;""><img src=""images/map27_RdBu_scaleDef_orientDef_270.png"" alt=""map"" style=""width: 100%;""><img src=""images/map02_Spectral_scaleRev_orientDef_180.png"" alt=""map"" style=""width: 100%;""><img src=""images/map10_Greys_scaleRev_orientMir_180.png"" alt=""map"" style=""width: 100%;""><img src=""images/map26_PiYG_scaleRev_orientDef_180.png"" alt=""map"" style=""width: 100%;""><img src=""images/map23_PuBuGn_scaleRev_orientMir_000.png"" alt=""map"" style=""width: 100%;""><img src=""images/map27_RdGy_scaleRev_orientDef_180.png"" alt=""map"" style=""width: 100%;""><img src=""images/map12_Greens_scaleDef_orientDef_270.png"" alt=""map"" style=""width: 100%;""><img src=""images/map05_managua_scaleDef_orientDef_270.png"" alt=""map"" style=""width: 100%;""><img src=""images/map05_seismic_scaleRev_orientDef_000.png"" alt=""map"" style=""width: 100%;""><img src=""images/map15_GnBu_scaleRev_orientMir_180.png"" alt=""map"" style=""width: 100%;""><img src=""images/map15_RdPu_scaleRev_orientDef_180.png"" alt=""map"" style=""width: 100%;""><img src=""images/map26_PuOr_scaleDef_orientMir_270.png"" alt=""map"" style=""width: 100%;""><img src=""images/map10_Purples_scaleDef_orientMir_270.png"" alt=""map"" style=""width: 100%;""><img src=""images/map27_RdYlBu_scaleRev_orientMir_180.png"" alt=""map"" style=""width: 100%;""><img src=""images/map10_cividis_scaleRev_orientMir_000.png"" alt=""map"" style=""width: 100%;""><img src=""images/map15_PuRd_scaleRev_orientDef_000.png"" alt=""map"" style=""width: 100%;""><img src=""images/map23_BuGn_scaleRev_orientMir_180.png"" alt=""map"" style=""width: 100%;""><img src=""images/map26_YlGn_scaleRev_orientDef_000.png"" alt=""map"" style=""width: 100%;""><img src=""images/map26_PRGn_scaleRev_orientMir_000.png"" alt=""map"" style=""width: 100%;""><img src=""images/map26_BrBG_scaleRev_orientMir_180.png"" alt=""map"" style=""width: 100%;""><img src=""images/map02_coolwarm_scaleRev_orientMir_000.png"" alt=""map"" style=""width: 100%;""><img src=""images/map12_Reds_scaleDef_orientMir_270.png"" alt=""map"" style=""width: 100%;""><img src=""images/map23_YlGnBu_scaleDef_orientDef_090.png"" alt=""map"" style=""width: 100%;""><img src=""images/map10_magma_scaleDef_orientDef_090.png"" alt=""map"" style=""width: 100%;""><img src=""images/map13_YlOrBr_scaleDef_orientDef_090.png"" alt=""map"" style=""width: 100%;""><img src=""images/map15_BuPu_scaleRev_orientMir_000.png"" alt=""map"" style=""width: 100%;""><img src=""images/map07_turbo_scaleRev_orientDef_180.png"" alt=""map"" style=""width: 100%;""><img src=""images/map13_OrRd_scaleDef_orientMir_090.png"" alt=""map"" style=""width: 100%;""><img src=""images/map02_RdYlGn_scaleRev_orientDef_000.png"" alt=""map"" style=""width: 100%;""><img src=""images/map12_Oranges_scaleDef_orientMir_090.png"" alt=""map"" style=""width: 100%;""><img src=""images/map02_bwr_scaleDef_orientMir_090.png"" alt=""map"" style=""width: 100%;""><img src=""images/map05_vanimo_scaleRev_orientMir_180.png"" alt=""map"" style=""width: 100%;""><img src=""images/map07_plasma_scaleRev_orientMir_180.png"" alt=""map"" style=""width: 100%;""><img src=""images/map12_Blues_scaleDef_orientDef_090.png"" alt=""map"" style=""width: 100%;"">
                    </div>
                </div>

                    <!-- Clear floats -->
                    <div style=""clear: both;""></div>
                </div>
                            ",0.5075,"",0,"true",NA,"","","",NA,NA,NA,"","","","",NA,NA
"","","","","","html-button-response",7,224880,"0.0-7.0","jfot3pzbtg",19,3574,"<div style=""width:800px;""><p style=""text-align:left"">To move the slider, click and drag your cursor to the location of the scale where you would like to make your rating and then let go. When you let go of the slider, your response will be recorded and the next trial will begin. <br>
                    We are interested in your initial impressions of each map for the given concept, so please go with your first intuition. <br>
                    Before you begin the experiment, there will be four training trials for you to practice using the scale. <br>
                     When you are ready to start the training trials, please click ""Continue"".</p><br></div>",0.5,"",NA,"",NA,"","","",NA,NA,NA,"","","","",NA,NA
"","","","","","html-slider-response",8,229915,"0.0-8.0-0.0","jfot3pzbtg",19,NA,"<div style=""width:500px;"">
                                    <p style=""font-size:25px;"">Please move the slider all the way to the <br> right endpoint of the scale</p>

                                    </div>
                                </div>",1,"",0,"true",0,"true","","",NA,NA,NA,"","","","",NA,NA
"","","","","","html-button-response",9,273179,"0.0-8.0-1.0","jfot3pzbtg",19,42755,"<p align='center'><b>Good job!</b> Click on 'Continue' to proceed.</p>",0.5,"",NA,"",NA,"","","",NA,NA,NA,"","","","",NA,NA
"","","","","","html-slider-response",10,275698,"0.0-9.0-0.0","jfot3pzbtg",19,NA,"<div style=""width:500px;"">
                                    <p style=""font-size:25px;"">Please move the slider all the way to the <br> left endpoint of the scale</p>

                                    </div>
                                </div>",0,"",0,"true",1,"true","","",NA,NA,NA,"","","","",NA,NA
"","","","","","html-button-response",11,277066,"0.0-9.0-1.0","jfot3pzbtg",19,865,"<p align='center'><b>Good job!</b> Click on 'Continue' to proceed.</p>",0.5,"",NA,"",NA,"","","",NA,NA,NA,"","","","",NA,NA
"","","","","","html-slider-response",12,282691,"0.0-10.0-0.0","jfot3pzbtg",19,NA,"<div style=""width:500px;"">
                                    <p style=""font-size:25px;"">Please move the slider halfway between the center and right endpoint of the scale</p>

                                    </div>
                                </div>",0.74,"",0,"true",2,"true","","",NA,NA,NA,"","","","",NA,NA
"","","","","","html-button-response",13,284020,"0.0-10.0-1.0","jfot3pzbtg",19,825,"<p align='center'><b>Good job!</b> Click on 'Continue' to proceed.</p>",0.5,"",NA,"",NA,"","","",NA,NA,NA,"","","","",NA,NA
"","","","","","html-slider-response",14,287081,"0.0-11.0-0.0","jfot3pzbtg",19,NA,"<div style=""width:500px;"">
                                    <p style=""font-size:25px;"">Please move the slider halfway between the center and left endpoint of the scale</p>

                                    </div>
                                </div>",0.2325,"",0,"true",3,"true","","",NA,NA,NA,"","","","",NA,NA
"","","","","","html-button-response",15,288503,"0.0-11.0-1.0","jfot3pzbtg",19,917,"<p align='center'><b>Good job!</b> Click on 'Continue' to proceed.</p>",0.5,"",NA,"",NA,"","","",NA,NA,NA,"","","","",NA,NA
"","","","","","html-button-response",16,289627,"0.0-12.0","jfot3pzbtg",19,1121,"<p>Great job! You've completed the practice trials. Now you will begin the main task.</p>",0.5,"",NA,"",NA,"","","",NA,NA,NA,"","","","",NA,NA
"","","","","","html-button-response",17,292155,"0.0-13.0","jfot3pzbtg",19,2527,"<p>In this block of trials, you will be asked to rate how much you associate each map with:</p > <p style = 'font-size:150%; font-weight: bold'>angry</p><br></br>",0.5,"",NA,"",NA,"","","",NA,NA,NA,"","","","",NA,NA
"","","","","","html-slider-response",18,296641,"0.0-14.0","jfot3pzbtg",19,NA,"<div style=""width:500px;"">
                            <p style=""font-size:50px; font-weight:bold;""
                            >angry</p>
                            <div style=""width:240px; margin: auto;"">
                                <img src=""images/map02_Spectral_scaleDef_orientDef_090.png"" style= ""width:200px""alt=""img"">
                            </div>
                        </div>",0.565,"",0,"",NA,"","images/map02_Spectral_scaleDef_orientDef_090.png","angry",1,2,2,"Spectral","orientDef","scaleDef","090",NA,NA
"","","","","","html-slider-response",19,305015,"0.0-15.0","jfot3pzbtg",19,NA,"<div style=""width:500px;"">
                            <p style=""font-size:50px; font-weight:bold;""
                            >angry</p>
                            <div style=""width:240px; margin: auto;"">
                                <img src=""images/map12_Blues_scaleDef_orientDef_090.png"" style= ""width:200px""alt=""img"">
                            </div>
                        </div>",0.195,"",0,"",NA,"","images/map12_Blues_scaleDef_orientDef_090.png","angry",1,12,12,"Blues","orientDef","scaleDef","090",NA,NA
"","","","","","html-slider-response",20,309857,"0.0-16.0","jfot3pzbtg",19,NA,"<div style=""width:500px;"">
                            <p style=""font-size:50px; font-weight:bold;""
                            >angry</p>
                            <div style=""width:240px; margin: auto;"">
                                <img src=""images/map05_berlin_scaleRev_orientDef_180.png"" style= ""width:200px""alt=""img"">
                            </div>
                        </div>",0.9125,"",0,"",NA,"","images/map05_berlin_scaleRev_orientDef_180.png","angry",1,5,5,"berlin","orientDef","scaleRev","180",NA,NA
"","","","","","html-slider-response",21,312139,"0.0-17.0","jfot3pzbtg",19,NA,"<div style=""width:500px;"">
                            <p style=""font-size:50px; font-weight:bold;""
                            >angry</p>
                            <div style=""width:240px; margin: auto;"">
                                <img src=""images/map13_OrRd_scaleRev_orientMir_180.png"" style= ""width:200px""alt=""img"">
                            </div>
                        </div>",1,"",0,"",NA,"","images/map13_OrRd_scaleRev_orientMir_180.png","angry",1,13,13,"OrRd","orientMir","scaleRev","180",NA,NA
"","","","","","html-slider-response",22,315449,"0.0-18.0","jfot3pzbtg",19,NA,"<div style=""width:500px;"">
                            <p style=""font-size:50px; font-weight:bold;""
                            >angry</p>
                            <div style=""width:240px; margin: auto;"">
                                <img src=""images/map10_cividis_scaleRev_orientMir_000.png"" style= ""width:200px""alt=""img"">
                            </div>
                        </div>",0.2425,"",0,"",NA,"","images/map10_cividis_scaleRev_orientMir_000.png","angry",1,10,10,"cividis","orientMir","scaleRev","000",NA,NA
"","","","","","html-slider-response",23,317520,"0.0-19.0","jfot3pzbtg",19,NA,"<div style=""width:500px;"">
                            <p style=""font-size:50px; font-weight:bold;""
                            >angry</p>
                            <div style=""width:240px; margin: auto;"">
                                <img src=""images/map12_Blues_scaleRev_orientDef_180.png"" style= ""width:200px""alt=""img"">
                            </div>
                        </div>",0,"",0,"",NA,"","images/map12_Blues_scaleRev_orientDef_180.png","angry",1,12,12,"Blues","orientDef","scaleRev","180",NA,NA
"","","","","","html-slider-response",24,320139,"0.0-20.0","jfot3pzbtg",19,NA,"<div style=""width:500px;"">
                            <p style=""font-size:50px; font-weight:bold;""
                            >angry</p>
                            <div style=""width:240px; margin: auto;"">
                                <img src=""images/map27_RdYlGn_scaleDef_orientMir_270.png"" style= ""width:200px""alt=""img"">
                            </div>
                        </div>",0,"",0,"",NA,"","images/map27_RdYlGn_scaleDef_orientMir_270.png","angry",1,27,27,"RdYlGn","orientMir","scaleDef","270",NA,NA
"","","","","","html-slider-response",25,325291,"0.0-21.0","jfot3pzbtg",19,NA,"<div style=""width:500px;"">
                            <p style=""font-size:50px; font-weight:bold;""
                            >angry</p>
                            <div style=""width:240px; margin: auto;"">
                                <img src=""images/map02_bwr_scaleDef_orientMir_090.png"" style= ""width:200px""alt=""img"">
                            </div>
                        </div>",0.6,"",0,"",NA,"","images/map02_bwr_scaleDef_orientMir_090.png","angry",1,2,2,"bwr","orientMir","scaleDef","090",NA,NA
"","","","","","html-slider-response",26,327656,"0.0-22.0","jfot3pzbtg",19,NA,"<div style=""width:500px;"">
                            <p style=""font-size:50px; font-weight:bold;""
                            >angry</p>
                            <div style=""width:240px; margin: auto;"">
                                <img src=""images/map15_PuBu_scaleDef_orientMir_270.png"" style= ""width:200px""alt=""img"">
                            </div>
                        </div>",0,"",0,"",NA,"","images/map15_PuBu_scaleDef_orientMir_270.png","angry",1,15,15,"PuBu","orientMir","scaleDef","270",NA,NA
"","","","","","html-slider-response",27,333963,"0.0-23.0","jfot3pzbtg",19,NA,"<div style=""width:500px;"">
                            <p style=""font-size:50px; font-weight:bold;""
                            >angry</p>
                            <div style=""width:240px; margin: auto;"">
                                <img src=""images/map07_plasma_scaleRev_orientMir_180.png"" style= ""width:200px""alt=""img"">
                            </div>
                        </div>",0.55,"",0,"",NA,"","images/map07_plasma_scaleRev_orientMir_180.png","angry",1,7,7,"plasma","orientMir","scaleRev","180",NA,NA
"","","","","","html-slider-response",28,337235,"0.0-24.0","jfot3pzbtg",19,NA,"<div style=""width:500px;"">
                            <p style=""font-size:50px; font-weight:bold;""
                            >angry</p>
                            <div style=""width:240px; margin: auto;"">
                                <img src=""images/map02_Spectral_scaleRev_orientDef_180.png"" style= ""width:200px""alt=""img"">
                            </div>
                        </div>",0.3725,"",0,"",NA,"","images/map02_Spectral_scaleRev_orientDef_180.png","angry",1,2,2,"Spectral","orientDef","scaleRev","180",NA,NA
"","","","","","html-slider-response",29,340238,"0.0-25.0","jfot3pzbtg",19,NA,"<div style=""width:500px;"">
                            <p style=""font-size:50px; font-weight:bold;""
                            >angry</p>
                            <div style=""width:240px; margin: auto;"">
                                <img src=""images/map15_RdPu_scaleRev_orientDef_180.png"" style= ""width:200px""alt=""img"">
                            </div>
                        </div>",0,"",0,"",NA,"","images/map15_RdPu_scaleRev_orientDef_180.png","angry",1,15,15,"RdPu","orientDef","scaleRev","180",NA,NA
"","","","","","html-slider-response",30,342181,"0.0-26.0","jfot3pzbtg",19,NA,"<div style=""width:500px;"">
                            <p style=""font-size:50px; font-weight:bold;""
                            >angry</p>
                            <div style=""width:240px; margin: auto;"">
                                <img src=""images/map05_berlin_scaleDef_orientDef_090.png"" style= ""width:200px""alt=""img"">
                            </div>
                        </div>",1,"",0,"",NA,"","images/map05_berlin_scaleDef_orientDef_090.png","angry",1,5,5,"berlin","orientDef","scaleDef","090",NA,NA
"","","","","","html-slider-response",31,344279,"0.0-27.0","jfot3pzbtg",19,NA,"<div style=""width:500px;"">
                            <p style=""font-size:50px; font-weight:bold;""
                            >angry</p>
                            <div style=""width:240px; margin: auto;"">
                                <img src=""images/map23_BuGn_scaleDef_orientMir_090.png"" style= ""width:200px""alt=""img"">
                            </div>
                        </div>",0,"",0,"",NA,"","images/map23_BuGn_scaleDef_orientMir_090.png","angry",1,23,23,"BuGn","orientMir","scaleDef","090",NA,NA
"","","","","","html-slider-response",32,346709,"0.0-28.0","jfot3pzbtg",19,NA,"<div style=""width:500px;"">
                            <p style=""font-size:50px; font-weight:bold;""
                            >angry</p>
                            <div style=""width:240px; margin: auto;"">
                                <img src=""images/map02_coolwarm_scaleRev_orientMir_000.png"" style= ""width:200px""alt=""img"">
                            </div>
                        </div>",0.535,"",0,"",NA,"","images/map02_coolwarm_scaleRev_orientMir_000.png","angry",1,2,2,"coolwarm","orientMir","scaleRev","000",NA,NA
"","","","","","html-slider-response",33,348424,"0.0-29.0","jfot3pzbtg",19,NA,"<div style=""width:500px;"">
                            <p style=""font-size:50px; font-weight:bold;""
                            >angry</p>
                            <div style=""width:240px; margin: auto;"">
                                <img src=""images/map12_Reds_scaleDef_orientMir_270.png"" style= ""width:200px""alt=""img"">
                            </div>
                        </div>",1,"",0,"",NA,"","images/map12_Reds_scaleDef_orientMir_270.png","angry",1,12,12,"Reds","orientMir","scaleDef","270",NA,NA
"","","","","","html-slider-response",34,351005,"0.0-30.0","jfot3pzbtg",19,NA,"<div style=""width:500px;"">
                            <p style=""font-size:50px; font-weight:bold;""
                            >angry</p>
                            <div style=""width:240px; margin: auto;"">
                                <img src=""images/map27_RdBu_scaleDef_orientDef_270.png"" style= ""width:200px""alt=""img"">
                            </div>
                        </div>",0.555,"",0,"",NA,"","images/map27_RdBu_scaleDef_orientDef_270.png","angry",1,27,27,"RdBu","orientDef","scaleDef","270",NA,NA
"","","","","","html-slider-response",35,353130,"0.0-31.0","jfot3pzbtg",19,NA,"<div style=""width:500px;"">
                            <p style=""font-size:50px; font-weight:bold;""
                            >angry</p>
                            <div style=""width:240px; margin: auto;"">
                                <img src=""images/map26_BrBG_scaleRev_orientMir_180.png"" style= ""width:200px""alt=""img"">
                            </div>
                        </div>",0.3475,"",0,"",NA,"","images/map26_BrBG_scaleRev_orientMir_180.png","angry",1,26,26,"BrBG","orientMir","scaleRev","180",NA,NA
"","","","","","html-slider-response",36,356057,"0.0-32.0","jfot3pzbtg",19,NA,"<div style=""width:500px;"">
                            <p style=""font-size:50px; font-weight:bold;""
                            >angry</p>
                            <div style=""width:240px; margin: auto;"">
                                <img src=""images/map05_seismic_scaleRev_orientDef_000.png"" style= ""width:200px""alt=""img"">
                            </div>
                        </div>",0.68,"",0,"",NA,"","images/map05_seismic_scaleRev_orientDef_000.png","angry",1,5,5,"seismic","orientDef","scaleRev","000",NA,NA
"","","","","","html-slider-response",37,358064,"0.0-33.0","jfot3pzbtg",19,NA,"<div style=""width:500px;"">
                            <p style=""font-size:50px; font-weight:bold;""
                            >angry</p>
                            <div style=""width:240px; margin: auto;"">
                                <img src=""images/map26_PRGn_scaleDef_orientDef_270.png"" style= ""width:200px""alt=""img"">
                            </div>
                        </div>",0.0975,"",0,"",NA,"","images/map26_PRGn_scaleDef_orientDef_270.png","angry",1,26,26,"PRGn","orientDef","scaleDef","270",NA,NA
"","","","","","html-slider-response",38,360088,"0.0-34.0","jfot3pzbtg",19,NA,"<div style=""width:500px;"">
                            <p style=""font-size:50px; font-weight:bold;""
                            >angry</p>
                            <div style=""width:240px; margin: auto;"">
                                <img src=""images/map15_BuPu_scaleDef_orientDef_270.png"" style= ""width:200px""alt=""img"">
                            </div>
                        </div>",0.2425,"",0,"",NA,"","images/map15_BuPu_scaleDef_orientDef_270.png","angry",1,15,15,"BuPu","orientDef","scaleDef","270",NA,NA
"","","","","","html-slider-response",39,362119,"0.0-35.0","jfot3pzbtg",19,NA,"<div style=""width:500px;"">
                            <p style=""font-size:50px; font-weight:bold;""
                            >angry</p>
                            <div style=""width:240px; margin: auto;"">
                                <img src=""images/map15_GnBu_scaleDef_orientMir_090.png"" style= ""width:200px""alt=""img"">
                            </div>
                        </div>",0,"",0,"",NA,"","images/map15_GnBu_scaleDef_orientMir_090.png","angry",1,15,15,"GnBu","orientMir","scaleDef","090",NA,NA
"","","","","","html-slider-response",40,364459,"0.0-36.0","jfot3pzbtg",19,NA,"<div style=""width:500px;"">
                            <p style=""font-size:50px; font-weight:bold;""
                            >angry</p>
                            <div style=""width:240px; margin: auto;"">
                                <img src=""images/map10_Purples_scaleDef_orientMir_270.png"" style= ""width:200px""alt=""img"">
                            </div>
                        </div>",0.2825,"",0,"",NA,"","images/map10_Purples_scaleDef_orientMir_270.png","angry",1,10,10,"Purples","orientMir","scaleDef","270",NA,NA
"","","","","","html-slider-response",41,366857,"0.0-37.0","jfot3pzbtg",19,NA,"<div style=""width:500px;"">
                            <p style=""font-size:50px; font-weight:bold;""
                            >angry</p>
                            <div style=""width:240px; margin: auto;"">
                                <img src=""images/map05_managua_scaleDef_orientDef_270.png"" style= ""width:200px""alt=""img"">
                            </div>
                        </div>",0.5575,"",0,"",NA,"","images/map05_managua_scaleDef_orientDef_270.png","angry",1,5,5,"managua","orientDef","scaleDef","270",NA,NA
"","","","","","html-slider-response",42,368414,"0.0-38.0","jfot3pzbtg",19,NA,"<div style=""width:500px;"">
                            <p style=""font-size:50px; font-weight:bold;""
                            >angry</p>
                            <div style=""width:240px; margin: auto;"">
                                <img src=""images/map12_Greens_scaleRev_orientMir_000.png"" style= ""width:200px""alt=""img"">
                            </div>
                        </div>",0,"",0,"",NA,"","images/map12_Greens_scaleRev_orientMir_000.png","angry",1,12,12,"Greens","orientMir","scaleRev","000",NA,NA
"","","","","","html-slider-response",43,370073,"0.0-39.0","jfot3pzbtg",19,NA,"<div style=""width:500px;"">
                            <p style=""font-size:50px; font-weight:bold;""
                            >angry</p>
                            <div style=""width:240px; margin: auto;"">
                                <img src=""images/map23_YlGnBu_scaleDef_orientDef_090.png"" style= ""width:200px""alt=""img"">
                            </div>
                        </div>",0.0625,"",0,"",NA,"","images/map23_YlGnBu_scaleDef_orientDef_090.png","angry",1,23,23,"YlGnBu","orientDef","scaleDef","090",NA,NA
"","","","","","html-slider-response",44,372883,"0.0-40.0","jfot3pzbtg",19,NA,"<div style=""width:500px;"">
                            <p style=""font-size:50px; font-weight:bold;""
                            >angry</p>
                            <div style=""width:240px; margin: auto;"">
                                <img src=""images/map13_YlOrBr_scaleRev_orientDef_180.png"" style= ""width:200px""alt=""img"">
                            </div>
                        </div>",0.56,"",0,"",NA,"","images/map13_YlOrBr_scaleRev_orientDef_180.png","angry",1,13,13,"YlOrBr","orientDef","scaleRev","180",NA,NA
"","","","","","html-slider-response",45,375191,"0.0-41.0","jfot3pzbtg",19,NA,"<div style=""width:500px;"">
                            <p style=""font-size:50px; font-weight:bold;""
                            >angry</p>
                            <div style=""width:240px; margin: auto;"">
                                <img src=""images/map26_YlGn_scaleRev_orientDef_000.png"" style= ""width:200px""alt=""img"">
                            </div>
                        </div>",0,"",0,"",NA,"","images/map26_YlGn_scaleRev_orientDef_000.png","angry",1,26,26,"YlGn","orientDef","scaleRev","000",NA,NA
"","","","","","html-slider-response",46,380245,"0.0-42.0","jfot3pzbtg",19,NA,"<div style=""width:500px;"">
                            <p style=""font-size:50px; font-weight:bold;""
                            >angry</p>
                            <div style=""width:240px; margin: auto;"">
                                <img src=""images/map23_PuBuGn_scaleRev_orientMir_000.png"" style= ""width:200px""alt=""img"">
                            </div>
                        </div>",0,"",0,"",NA,"","images/map23_PuBuGn_scaleRev_orientMir_000.png","angry",1,23,23,"PuBuGn","orientMir","scaleRev","000",NA,NA
"","","","","","html-slider-response",47,381932,"0.0-43.0","jfot3pzbtg",19,NA,"<div style=""width:500px;"">
                            <p style=""font-size:50px; font-weight:bold;""
                            >angry</p>
                            <div style=""width:240px; margin: auto;"">
                                <img src=""images/map27_RdGy_scaleRev_orientDef_180.png"" style= ""width:200px""alt=""img"">
                            </div>
                        </div>",0.63,"",0,"",NA,"","images/map27_RdGy_scaleRev_orientDef_180.png","angry",1,27,27,"RdGy","orientDef","scaleRev","180",NA,NA
"","","","","","html-slider-response",48,384062,"0.0-44.0","jfot3pzbtg",19,NA,"<div style=""width:500px;"">
                            <p style=""font-size:50px; font-weight:bold;""
                            >angry</p>
                            <div style=""width:240px; margin: auto;"">
                                <img src=""images/map02_coolwarm_scaleDef_orientDef_270.png"" style= ""width:200px""alt=""img"">
                            </div>
                        </div>",0.315,"",0,"",NA,"","images/map02_coolwarm_scaleDef_orientDef_270.png","angry",1,2,2,"coolwarm","orientDef","scaleDef","270",NA,NA
"","","","","","html-slider-response",49,386612,"0.0-45.0","jfot3pzbtg",19,NA,"<div style=""width:500px;"">
                            <p style=""font-size:50px; font-weight:bold;""
                            >angry</p>
                            <div style=""width:240px; margin: auto;"">
                                <img src=""images/map10_Greys_scaleDef_orientMir_090.png"" style= ""width:200px""alt=""img"">
                            </div>
                        </div>",0.555,"",0,"",NA,"","images/map10_Greys_scaleDef_orientMir_090.png","angry",1,10,10,"Greys","orientMir","scaleDef","090",NA,NA
"","","","","","html-slider-response",50,388812,"0.0-46.0","jfot3pzbtg",19,NA,"<div style=""width:500px;"">
                            <p style=""font-size:50px; font-weight:bold;""
                            >angry</p>
                            <div style=""width:240px; margin: auto;"">
                                <img src=""images/map05_managua_scaleRev_orientMir_000.png"" style= ""width:200px""alt=""img"">
                            </div>
                        </div>",0.6625,"",0,"",NA,"","images/map05_managua_scaleRev_orientMir_000.png","angry",1,5,5,"managua","orientMir","scaleRev","000",NA,NA
"","","","","","html-slider-response",51,390982,"0.0-47.0","jfot3pzbtg",19,NA,"<div style=""width:500px;"">
                            <p style=""font-size:50px; font-weight:bold;""
                            >angry</p>
                            <div style=""width:240px; margin: auto;"">
                                <img src=""images/map13_PuRd_scaleDef_orientMir_270.png"" style= ""width:200px""alt=""img"">
                            </div>
                        </div>",0.195,"",0,"",NA,"","images/map13_PuRd_scaleDef_orientMir_270.png","angry",1,13,13,"PuRd","orientMir","scaleDef","270",NA,NA
"","","","","","html-slider-response",52,393284,"0.0-48.0","jfot3pzbtg",19,NA,"<div style=""width:500px;"">
                            <p style=""font-size:50px; font-weight:bold;""
                            >angry</p>
                            <div style=""width:240px; margin: auto;"">
                                <img src=""images/map26_PiYG_scaleRev_orientDef_180.png"" style= ""width:200px""alt=""img"">
                            </div>
                        </div>",0,"",0,"",NA,"","images/map26_PiYG_scaleRev_orientDef_180.png","angry",1,26,26,"PiYG","orientDef","scaleRev","180",NA,NA
"","","","","","html-slider-response",53,395146,"0.0-49.0","jfot3pzbtg",19,NA,"<div style=""width:500px;"">
                            <p style=""font-size:50px; font-weight:bold;""
                            >angry</p>
                            <div style=""width:240px; margin: auto;"">
                                <img src=""images/map10_magma_scaleRev_orientDef_180.png"" style= ""width:200px""alt=""img"">
                            </div>
                        </div>",0.7475,"",0,"",NA,"","images/map10_magma_scaleRev_orientDef_180.png","angry",1,10,10,"magma","orientDef","scaleRev","180",NA,NA
"","","","","","html-slider-response",54,396722,"0.0-50.0","jfot3pzbtg",19,NA,"<div style=""width:500px;"">
                            <p style=""font-size:50px; font-weight:bold;""
                            >angry</p>
                            <div style=""width:240px; margin: auto;"">
                                <img src=""images/map23_YlGnBu_scaleRev_orientDef_180.png"" style= ""width:200px""alt=""img"">
                            </div>
                        </div>",0,"",0,"",NA,"","images/map23_YlGnBu_scaleRev_orientDef_180.png","angry",1,23,23,"YlGnBu","orientDef","scaleRev","180",NA,NA
"","","","","","html-slider-response",55,400156,"0.0-51.0","jfot3pzbtg",19,NA,"<div style=""width:500px;"">
                            <p style=""font-size:50px; font-weight:bold;""
                            >angry</p>
                            <div style=""width:240px; margin: auto;"">
                                <img src=""images/map27_RdGy_scaleDef_orientDef_090.png"" style= ""width:200px""alt=""img"">
                            </div>
                        </div>",0.615,"",0,"",NA,"","images/map27_RdGy_scaleDef_orientDef_090.png","angry",1,27,27,"RdGy","orientDef","scaleDef","090",NA,NA
"","","","","","html-slider-response",56,402299,"0.0-52.0","jfot3pzbtg",19,NA,"<div style=""width:500px;"">
                            <p style=""font-size:50px; font-weight:bold;""
                            >angry</p>
                            <div style=""width:240px; margin: auto;"">
                                <img src=""images/map10_magma_scaleDef_orientDef_090.png"" style= ""width:200px""alt=""img"">
                            </div>
                        </div>",0.665,"",0,"",NA,"","images/map10_magma_scaleDef_orientDef_090.png","angry",1,10,10,"magma","orientDef","scaleDef","090",NA,NA
"","","","","","html-slider-response",57,403755,"0.0-53.0","jfot3pzbtg",19,NA,"<div style=""width:500px;"">
                            <p style=""font-size:50px; font-weight:bold;""
                            >angry</p>
                            <div style=""width:240px; margin: auto;"">
                                <img src=""images/map26_PiYG_scaleDef_orientDef_090.png"" style= ""width:200px""alt=""img"">
                            </div>
                        </div>",0,"",0,"",NA,"","images/map26_PiYG_scaleDef_orientDef_090.png","angry",1,26,26,"PiYG","orientDef","scaleDef","090",NA,NA
"","","","","","html-button-response",58,406327,"0.0-54.0","jfot3pzbtg",19,2069,"<p>You are doing great!<br></br> You are halway done with the current block. When you are ready to continue, click the 'Continue' button.</p>",0.5,"",NA,"",NA,"","","",NA,NA,NA,"","","","",NA,NA
"","","","","","html-slider-response",59,408098,"0.0-55.0","jfot3pzbtg",19,NA,"<div style=""width:500px;"">
                            <p style=""font-size:50px; font-weight:bold;""
                            >angry</p>
                            <div style=""width:240px; margin: auto;"">
                                <img src=""images/map13_YlOrRd_scaleRev_orientMir_000.png"" style= ""width:200px""alt=""img"">
                            </div>
                        </div>",1,"",0,"",NA,"","images/map13_YlOrRd_scaleRev_orientMir_000.png","angry",1,13,13,"YlOrRd","orientMir","scaleRev","000",NA,NA
"","","","","","html-slider-response",60,410053,"0.0-56.0","jfot3pzbtg",19,NA,"<div style=""width:500px;"">
                            <p style=""font-size:50px; font-weight:bold;""
                            >angry</p>
                            <div style=""width:240px; margin: auto;"">
                                <img src=""images/map12_Oranges_scaleDef_orientMir_090.png"" style= ""width:200px""alt=""img"">
                            </div>
                        </div>",0.705,"",0,"",NA,"","images/map12_Oranges_scaleDef_orientMir_090.png","angry",1,12,12,"Oranges","orientMir","scaleDef","090",NA,NA
"","","","","","html-slider-response",61,411751,"0.0-57.0","jfot3pzbtg",19,NA,"<div style=""width:500px;"">
                            <p style=""font-size:50px; font-weight:bold;""
                            >angry</p>
                            <div style=""width:240px; margin: auto;"">
                                <img src=""images/map12_Greens_scaleDef_orientDef_270.png"" style= ""width:200px""alt=""img"">
                            </div>
                        </div>",0,"",0,"",NA,"","images/map12_Greens_scaleDef_orientDef_270.png","angry",1,12,12,"Greens","orientDef","scaleDef","270",NA,NA
"","","","","","html-slider-response",62,413704,"0.0-58.0","jfot3pzbtg",19,NA,"<div style=""width:500px;"">
                            <p style=""font-size:50px; font-weight:bold;""
                            >angry</p>
                            <div style=""width:240px; margin: auto;"">
                                <img src=""images/map23_BuGn_scaleRev_orientMir_180.png"" style= ""width:200px""alt=""img"">
                            </div>
                        </div>",0,"",0,"",NA,"","images/map23_BuGn_scaleRev_orientMir_180.png","angry",1,23,23,"BuGn","orientMir","scaleRev","180",NA,NA
"","","","","","html-slider-response",63,416272,"0.0-59.0","jfot3pzbtg",19,NA,"<div style=""width:500px;"">
                            <p style=""font-size:50px; font-weight:bold;""
                            >angry</p>
                            <div style=""width:240px; margin: auto;"">
                                <img src=""images/map07_viridis_scaleRev_orientMir_000.png"" style= ""width:200px""alt=""img"">
                            </div>
                        </div>",0.25,"",0,"",NA,"","images/map07_viridis_scaleRev_orientMir_000.png","angry",1,7,7,"viridis","orientMir","scaleRev","000",NA,NA
"","","","","","html-slider-response",64,417848,"0.0-60.0","jfot3pzbtg",19,NA,"<div style=""width:500px;"">
                            <p style=""font-size:50px; font-weight:bold;""
                            >angry</p>
                            <div style=""width:240px; margin: auto;"">
                                <img src=""images/map13_Reds_scaleRev_orientDef_000.png"" style= ""width:200px""alt=""img"">
                            </div>
                        </div>",1,"",0,"",NA,"","images/map13_Reds_scaleRev_orientDef_000.png","angry",1,13,13,"Reds","orientDef","scaleRev","000",NA,NA
"","","","","","html-slider-response",65,420114,"0.0-61.0","jfot3pzbtg",19,NA,"<div style=""width:500px;"">
                            <p style=""font-size:50px; font-weight:bold;""
                            >angry</p>
                            <div style=""width:240px; margin: auto;"">
                                <img src=""images/map27_RdYlBu_scaleRev_orientMir_180.png"" style= ""width:200px""alt=""img"">
                            </div>
                        </div>",0.5475,"",0,"",NA,"","images/map27_RdYlBu_scaleRev_orientMir_180.png","angry",1,27,27,"RdYlBu","orientMir","scaleRev","180",NA,NA
"","","","","","html-slider-response",66,421747,"0.0-62.0","jfot3pzbtg",19,NA,"<div style=""width:500px;"">
                            <p style=""font-size:50px; font-weight:bold;""
                            >angry</p>
                            <div style=""width:240px; margin: auto;"">
                                <img src=""images/map13_YlOrBr_scaleDef_orientDef_090.png"" style= ""width:200px""alt=""img"">
                            </div>
                        </div>",0.665,"",0,"",NA,"","images/map13_YlOrBr_scaleDef_orientDef_090.png","angry",1,13,13,"YlOrBr","orientDef","scaleDef","090",NA,NA
"","","","","","html-slider-response",67,423585,"0.0-63.0","jfot3pzbtg",19,NA,"<div style=""width:500px;"">
                            <p style=""font-size:50px; font-weight:bold;""
                            >angry</p>
                            <div style=""width:240px; margin: auto;"">
                                <img src=""images/map02_bwr_scaleRev_orientMir_180.png"" style= ""width:200px""alt=""img"">
                            </div>
                        </div>",0.1825,"",0,"",NA,"","images/map02_bwr_scaleRev_orientMir_180.png","angry",1,2,2,"bwr","orientMir","scaleRev","180",NA,NA
"","","","","","html-slider-response",68,425806,"0.0-64.0","jfot3pzbtg",19,NA,"<div style=""width:500px;"">
                            <p style=""font-size:50px; font-weight:bold;""
                            >angry</p>
                            <div style=""width:240px; margin: auto;"">
                                <img src=""images/map07_plasma_scaleDef_orientMir_090.png"" style= ""width:200px""alt=""img"">
                            </div>
                        </div>",0.605,"",0,"",NA,"","images/map07_plasma_scaleDef_orientMir_090.png","angry",1,7,7,"plasma","orientMir","scaleDef","090",NA,NA
"","","","","","html-slider-response",69,427959,"0.0-65.0","jfot3pzbtg",19,NA,"<div style=""width:500px;"">
                            <p style=""font-size:50px; font-weight:bold;""
                            >angry</p>
                            <div style=""width:240px; margin: auto;"">
                                <img src=""images/map10_cividis_scaleDef_orientDef_270.png"" style= ""width:200px""alt=""img"">
                            </div>
                        </div>",0.405,"",0,"",NA,"","images/map10_cividis_scaleDef_orientDef_270.png","angry",1,10,10,"cividis","orientDef","scaleDef","270",NA,NA
"","","","","","html-slider-response",70,429468,"0.0-66.0","jfot3pzbtg",19,NA,"<div style=""width:500px;"">
                            <p style=""font-size:50px; font-weight:bold;""
                            >angry</p>
                            <div style=""width:240px; margin: auto;"">
                                <img src=""images/map05_gist_earth_scaleDef_orientMir_270.png"" style= ""width:200px""alt=""img"">
                            </div>
                        </div>",0,"",0,"",NA,"","images/map05_gist_earth_scaleDef_orientMir_270.png","angry",1,5,5,"gist","scaleDef","earth","orientMir",NA,NA
"","","","","","html-slider-response",71,432606,"0.0-67.0","jfot3pzbtg",19,NA,"<div style=""width:500px;"">
                            <p style=""font-size:50px; font-weight:bold;""
                            >angry</p>
                            <div style=""width:240px; margin: auto;"">
                                <img src=""images/map15_PuRd_scaleRev_orientDef_000.png"" style= ""width:200px""alt=""img"">
                            </div>
                        </div>",0,"",0,"",NA,"","images/map15_PuRd_scaleRev_orientDef_000.png","angry",1,15,15,"PuRd","orientDef","scaleRev","000",NA,NA
"","","","","","html-slider-response",72,434381,"0.0-68.0","jfot3pzbtg",19,NA,"<div style=""width:500px;"">
                            <p style=""font-size:50px; font-weight:bold;""
                            >angry</p>
                            <div style=""width:240px; margin: auto;"">
                                <img src=""images/map07_gist_earth_scaleRev_orientDef_000.png"" style= ""width:200px""alt=""img"">
                            </div>
                        </div>",0.385,"",0,"",NA,"","images/map07_gist_earth_scaleRev_orientDef_000.png","angry",1,7,7,"gist","scaleRev","earth","orientDef",NA,NA
"","","","","","html-slider-response",73,436380,"0.0-69.0","jfot3pzbtg",19,NA,"<div style=""width:500px;"">
                            <p style=""font-size:50px; font-weight:bold;""
                            >angry</p>
                            <div style=""width:240px; margin: auto;"">
                                <img src=""images/map26_PRGn_scaleRev_orientMir_000.png"" style= ""width:200px""alt=""img"">
                            </div>
                        </div>",0.19,"",0,"",NA,"","images/map26_PRGn_scaleRev_orientMir_000.png","angry",1,26,26,"PRGn","orientMir","scaleRev","000",NA,NA
"","","","","","html-slider-response",74,439884,"0.0-70.0","jfot3pzbtg",19,NA,"<div style=""width:500px;"">
                            <p style=""font-size:50px; font-weight:bold;""
                            >angry</p>
                            <div style=""width:240px; margin: auto;"">
                                <img src=""images/map05_vanimo_scaleRev_orientMir_180.png"" style= ""width:200px""alt=""img"">
                            </div>
                        </div>",0.0675,"",0,"",NA,"","images/map05_vanimo_scaleRev_orientMir_180.png","angry",1,5,5,"vanimo","orientMir","scaleRev","180",NA,NA
"","","","","","html-slider-response",75,441707,"0.0-71.0","jfot3pzbtg",19,NA,"<div style=""width:500px;"">
                            <p style=""font-size:50px; font-weight:bold;""
                            >angry</p>
                            <div style=""width:240px; margin: auto;"">
                                <img src=""images/map23_PuBuGn_scaleDef_orientDef_270.png"" style= ""width:200px""alt=""img"">
                            </div>
                        </div>",0,"",0,"",NA,"","images/map23_PuBuGn_scaleDef_orientDef_270.png","angry",1,23,23,"PuBuGn","orientDef","scaleDef","270",NA,NA
"","","","","","html-slider-response",76,443767,"0.0-72.0","jfot3pzbtg",19,NA,"<div style=""width:500px;"">
                            <p style=""font-size:50px; font-weight:bold;""
                            >angry</p>
                            <div style=""width:240px; margin: auto;"">
                                <img src=""images/map12_Purples_scaleRev_orientDef_000.png"" style= ""width:200px""alt=""img"">
                            </div>
                        </div>",0.275,"",0,"",NA,"","images/map12_Purples_scaleRev_orientDef_000.png","angry",1,12,12,"Purples","orientDef","scaleRev","000",NA,NA
"","","","","","html-slider-response",77,450873,"0.0-73.0","jfot3pzbtg",19,NA,"<div style=""width:500px;"">
                            <p style=""font-size:50px; font-weight:bold;""
                            >angry</p>
                            <div style=""width:240px; margin: auto;"">
                                <img src=""images/map27_RdYlBu_scaleDef_orientMir_090.png"" style= ""width:200px""alt=""img"">
                            </div>
                        </div>",0.225,"",0,"",NA,"","images/map27_RdYlBu_scaleDef_orientMir_090.png","angry",1,27,27,"RdYlBu","orientMir","scaleDef","090",NA,NA
"","","","","","html-slider-response",78,452766,"0.0-74.0","jfot3pzbtg",19,NA,"<div style=""width:500px;"">
                            <p style=""font-size:50px; font-weight:bold;""
                            >angry</p>
                            <div style=""width:240px; margin: auto;"">
                                <img src=""images/map07_turbo_scaleDef_orientDef_090.png"" style= ""width:200px""alt=""img"">
                            </div>
                        </div>",0.1675,"",0,"",NA,"","images/map07_turbo_scaleDef_orientDef_090.png","angry",1,7,7,"turbo","orientDef","scaleDef","090",NA,NA
"","","","","","html-slider-response",79,454560,"0.0-75.0","jfot3pzbtg",19,NA,"<div style=""width:500px;"">
                            <p style=""font-size:50px; font-weight:bold;""
                            >angry</p>
                            <div style=""width:240px; margin: auto;"">
                                <img src=""images/map23_PuBu_scaleRev_orientDef_000.png"" style= ""width:200px""alt=""img"">
                            </div>
                        </div>",0,"",0,"",NA,"","images/map23_PuBu_scaleRev_orientDef_000.png","angry",1,23,23,"PuBu","orientDef","scaleRev","000",NA,NA
"","","","","","html-slider-response",80,456205,"0.0-76.0","jfot3pzbtg",19,NA,"<div style=""width:500px;"">
                            <p style=""font-size:50px; font-weight:bold;""
                            >angry</p>
                            <div style=""width:240px; margin: auto;"">
                                <img src=""images/map26_BrBG_scaleDef_orientMir_090.png"" style= ""width:200px""alt=""img"">
                            </div>
                        </div>",0.5725,"",0,"",NA,"","images/map26_BrBG_scaleDef_orientMir_090.png","angry",1,26,26,"BrBG","orientMir","scaleDef","090",NA,NA
"","","","","","html-slider-response",81,457540,"0.0-77.0","jfot3pzbtg",19,NA,"<div style=""width:500px;"">
                            <p style=""font-size:50px; font-weight:bold;""
                            >angry</p>
                            <div style=""width:240px; margin: auto;"">
                                <img src=""images/map12_Oranges_scaleRev_orientMir_180.png"" style= ""width:200px""alt=""img"">
                            </div>
                        </div>",1,"",0,"",NA,"","images/map12_Oranges_scaleRev_orientMir_180.png","angry",1,12,12,"Oranges","orientMir","scaleRev","180",NA,NA
"","","","","","html-slider-response",82,459972,"0.0-78.0","jfot3pzbtg",19,NA,"<div style=""width:500px;"">
                            <p style=""font-size:50px; font-weight:bold;""
                            >angry</p>
                            <div style=""width:240px; margin: auto;"">
                                <img src=""images/map27_PuOr_scaleRev_orientDef_000.png"" style= ""width:200px""alt=""img"">
                            </div>
                        </div>",0.6025,"",0,"",NA,"","images/map27_PuOr_scaleRev_orientDef_000.png","angry",1,27,27,"PuOr","orientDef","scaleRev","000",NA,NA
"","","","","","html-slider-response",83,464474,"0.0-79.0","jfot3pzbtg",19,NA,"<div style=""width:500px;"">
                            <p style=""font-size:50px; font-weight:bold;""
                            >angry</p>
                            <div style=""width:240px; margin: auto;"">
                                <img src=""images/map13_YlOrRd_scaleDef_orientDef_270.png"" style= ""width:200px""alt=""img"">
                            </div>
                        </div>",1,"",0,"",NA,"","images/map13_YlOrRd_scaleDef_orientDef_270.png","angry",1,13,13,"YlOrRd","orientDef","scaleDef","270",NA,NA
"","","","","","html-slider-response",84,466742,"0.0-80.0","jfot3pzbtg",19,NA,"<div style=""width:500px;"">
                            <p style=""font-size:50px; font-weight:bold;""
                            >angry</p>
                            <div style=""width:240px; margin: auto;"">
                                <img src=""images/map10_Greys_scaleRev_orientMir_180.png"" style= ""width:200px""alt=""img"">
                            </div>
                        </div>",0.705,"",0,"",NA,"","images/map10_Greys_scaleRev_orientMir_180.png","angry",1,10,10,"Greys","orientMir","scaleRev","180",NA,NA
"","","","","","html-slider-response",85,468615,"0.0-81.0","jfot3pzbtg",19,NA,"<div style=""width:500px;"">
                            <p style=""font-size:50px; font-weight:bold;""
                            >angry</p>
                            <div style=""width:240px; margin: auto;"">
                                <img src=""images/map07_viridis_scaleDef_orientDef_270.png"" style= ""width:200px""alt=""img"">
                            </div>
                        </div>",0.255,"",0,"",NA,"","images/map07_viridis_scaleDef_orientDef_270.png","angry",1,7,7,"viridis","orientDef","scaleDef","270",NA,NA
"","","","","","html-slider-response",86,477115,"0.0-82.0","jfot3pzbtg",19,NA,"<div style=""width:500px;"">
                            <p style=""font-size:50px; font-weight:bold;""
                            >angry</p>
                            <div style=""width:240px; margin: auto;"">
                                <img src=""images/map15_RdPu_scaleDef_orientDef_090.png"" style= ""width:200px""alt=""img"">
                            </div>
                        </div>",0.2675,"",0,"",NA,"","images/map15_RdPu_scaleDef_orientDef_090.png","angry",1,15,15,"RdPu","orientDef","scaleDef","090",NA,NA
"","","","","","html-slider-response",87,478796,"0.0-83.0","jfot3pzbtg",19,NA,"<div style=""width:500px;"">
                            <p style=""font-size:50px; font-weight:bold;""
                            >angry</p>
                            <div style=""width:240px; margin: auto;"">
                                <img src=""images/map23_YlGn_scaleDef_orientMir_270.png"" style= ""width:200px""alt=""img"">
                            </div>
                        </div>",0,"",0,"",NA,"","images/map23_YlGn_scaleDef_orientMir_270.png","angry",1,23,23,"YlGn","orientMir","scaleDef","270",NA,NA
"","","","","","html-slider-response",88,488321,"0.0-84.0","jfot3pzbtg",19,NA,"<div style=""width:500px;"">
                            <p style=""font-size:50px; font-weight:bold;""
                            >angry</p>
                            <div style=""width:240px; margin: auto;"">
                                <img src=""images/map15_GnBu_scaleRev_orientMir_180.png"" style= ""width:200px""alt=""img"">
                            </div>
                        </div>",0.155,"",0,"",NA,"","images/map15_GnBu_scaleRev_orientMir_180.png","angry",1,15,15,"GnBu","orientMir","scaleRev","180",NA,NA
"","","","","","html-slider-response",89,489911,"0.0-85.0","jfot3pzbtg",19,NA,"<div style=""width:500px;"">
                            <p style=""font-size:50px; font-weight:bold;""
                            >angry</p>
                            <div style=""width:240px; margin: auto;"">
                                <img src=""images/map27_RdBu_scaleRev_orientMir_000.png"" style= ""width:200px""alt=""img"">
                            </div>
                        </div>",0.6525,"",0,"",NA,"","images/map27_RdBu_scaleRev_orientMir_000.png","angry",1,27,27,"RdBu","orientMir","scaleRev","000",NA,NA
"","","","","","html-slider-response",90,492131,"0.0-86.0","jfot3pzbtg",19,NA,"<div style=""width:500px;"">
                            <p style=""font-size:50px; font-weight:bold;""
                            >angry</p>
                            <div style=""width:240px; margin: auto;"">
                                <img src=""images/map26_PuOr_scaleDef_orientMir_270.png"" style= ""width:200px""alt=""img"">
                            </div>
                        </div>",0.68,"",0,"",NA,"","images/map26_PuOr_scaleDef_orientMir_270.png","angry",1,26,26,"PuOr","orientMir","scaleDef","270",NA,NA
"","","","","","html-slider-response",91,493496,"0.0-87.0","jfot3pzbtg",19,NA,"<div style=""width:500px;"">
                            <p style=""font-size:50px; font-weight:bold;""
                            >angry</p>
                            <div style=""width:240px; margin: auto;"">
                                <img src=""images/map07_inferno_scaleDef_orientMir_270.png"" style= ""width:200px""alt=""img"">
                            </div>
                        </div>",1,"",0,"",NA,"","images/map07_inferno_scaleDef_orientMir_270.png","angry",1,7,7,"inferno","orientMir","scaleDef","270",NA,NA
"","","","","","html-slider-response",92,495288,"0.0-88.0","jfot3pzbtg",19,NA,"<div style=""width:500px;"">
                            <p style=""font-size:50px; font-weight:bold;""
                            >angry</p>
                            <div style=""width:240px; margin: auto;"">
                                <img src=""images/map07_turbo_scaleRev_orientDef_180.png"" style= ""width:200px""alt=""img"">
                            </div>
                        </div>",0.6525,"",0,"",NA,"","images/map07_turbo_scaleRev_orientDef_180.png","angry",1,7,7,"turbo","orientDef","scaleRev","180",NA,NA
"","","","","","html-slider-response",93,497248,"0.0-89.0","jfot3pzbtg",19,NA,"<div style=""width:500px;"">
                            <p style=""font-size:50px; font-weight:bold;""
                            >angry</p>
                            <div style=""width:240px; margin: auto;"">
                                <img src=""images/map05_vanimo_scaleDef_orientMir_090.png"" style= ""width:200px""alt=""img"">
                            </div>
                        </div>",0.7,"",0,"",NA,"","images/map05_vanimo_scaleDef_orientMir_090.png","angry",1,5,5,"vanimo","orientMir","scaleDef","090",NA,NA
"","","","","","html-slider-response",94,501165,"0.0-90.0","jfot3pzbtg",19,NA,"<div style=""width:500px;"">
                            <p style=""font-size:50px; font-weight:bold;""
                            >angry</p>
                            <div style=""width:240px; margin: auto;"">
                                <img src=""images/map02_RdYlGn_scaleRev_orientDef_000.png"" style= ""width:200px""alt=""img"">
                            </div>
                        </div>",0.3625,"",0,"",NA,"","images/map02_RdYlGn_scaleRev_orientDef_000.png","angry",1,2,2,"RdYlGn","orientDef","scaleRev","000",NA,NA
"","","","","","html-slider-response",95,502780,"0.0-91.0","jfot3pzbtg",19,NA,"<div style=""width:500px;"">
                            <p style=""font-size:50px; font-weight:bold;""
                            >angry</p>
                            <div style=""width:240px; margin: auto;"">
                                <img src=""images/map02_seismic_scaleDef_orientMir_270.png"" style= ""width:200px""alt=""img"">
                            </div>
                        </div>",0.7875,"",0,"",NA,"","images/map02_seismic_scaleDef_orientMir_270.png","angry",1,2,2,"seismic","orientMir","scaleDef","270",NA,NA
"","","","","","html-slider-response",96,504389,"0.0-92.0","jfot3pzbtg",19,NA,"<div style=""width:500px;"">
                            <p style=""font-size:50px; font-weight:bold;""
                            >angry</p>
                            <div style=""width:240px; margin: auto;"">
                                <img src=""images/map13_OrRd_scaleDef_orientMir_090.png"" style= ""width:200px""alt=""img"">
                            </div>
                        </div>",1,"",0,"",NA,"","images/map13_OrRd_scaleDef_orientMir_090.png","angry",1,13,13,"OrRd","orientMir","scaleDef","090",NA,NA
"","","","","","html-slider-response",97,506483,"0.0-93.0","jfot3pzbtg",19,NA,"<div style=""width:500px;"">
                            <p style=""font-size:50px; font-weight:bold;""
                            >angry</p>
                            <div style=""width:240px; margin: auto;"">
                                <img src=""images/map10_inferno_scaleRev_orientDef_000.png"" style= ""width:200px""alt=""img"">
                            </div>
                        </div>",0.6175,"",0,"",NA,"","images/map10_inferno_scaleRev_orientDef_000.png","angry",1,10,10,"inferno","orientDef","scaleRev","000",NA,NA
"","","","","","html-slider-response",98,510530,"0.0-94.0","jfot3pzbtg",19,NA,"<div style=""width:500px;"">
                            <p style=""font-size:50px; font-weight:bold;""
                            >angry</p>
                            <div style=""width:240px; margin: auto;"">
                                <img src=""images/map15_BuPu_scaleRev_orientMir_000.png"" style= ""width:200px""alt=""img"">
                            </div>
                        </div>",0.125,"",0,"",NA,"","images/map15_BuPu_scaleRev_orientMir_000.png","angry",1,15,15,"BuPu","orientMir","scaleRev","000",NA,NA
"","","","","","html-button-response",99,512245,"0.0-95.0","jfot3pzbtg",19,1208,"<p>Great Job! You've finished block 1.<br></br> You have 4 block(s) left to go.<br></br></p>",0.5,"",NA,"",NA,"","","",NA,NA,NA,"","","","",NA,NA
"","","","","","html-button-response",100,513533,"0.0-96.0","jfot3pzbtg",19,1287,"<p>In this block of trials, you will be asked to rate how much you associate each map with:</p > <p style = 'font-size:150%; font-weight: bold'>sad</p><br></br>",0.5,"",NA,"",NA,"","","",NA,NA,NA,"","","","",NA,NA
"","","","","","html-slider-response",101,516586,"0.0-97.0","jfot3pzbtg",19,NA,"<div style=""width:500px;"">
                            <p style=""font-size:50px; font-weight:bold;""
                            >sad</p>
                            <div style=""width:240px; margin: auto;"">
                                <img src=""images/map12_Greens_scaleDef_orientDef_270.png"" style= ""width:200px""alt=""img"">
                            </div>
                        </div>",0,"",0,"",NA,"","images/map12_Greens_scaleDef_orientDef_270.png","sad",1,12,12,"Greens","orientDef","scaleDef","270",NA,NA
"","","","","","html-slider-response",102,518978,"0.0-98.0","jfot3pzbtg",19,NA,"<div style=""width:500px;"">
                            <p style=""font-size:50px; font-weight:bold;""
                            >sad</p>
                            <div style=""width:240px; margin: auto;"">
                                <img src=""images/map27_RdYlGn_scaleDef_orientMir_270.png"" style= ""width:200px""alt=""img"">
                            </div>
                        </div>",0.3075,"",0,"",NA,"","images/map27_RdYlGn_scaleDef_orientMir_270.png","sad",1,27,27,"RdYlGn","orientMir","scaleDef","270",NA,NA
"","","","","","html-slider-response",103,520623,"0.0-99.0","jfot3pzbtg",19,NA,"<div style=""width:500px;"">
                            <p style=""font-size:50px; font-weight:bold;""
                            >sad</p>
                            <div style=""width:240px; margin: auto;"">
                                <img src=""images/map12_Greens_scaleRev_orientMir_000.png"" style= ""width:200px""alt=""img"">
                            </div>
                        </div>",0,"",0,"",NA,"","images/map12_Greens_scaleRev_orientMir_000.png","sad",1,12,12,"Greens","orientMir","scaleRev","000",NA,NA
"","","","","","html-slider-response",104,523723,"0.0-100.0","jfot3pzbtg",19,NA,"<div style=""width:500px;"">
                            <p style=""font-size:50px; font-weight:bold;""
                            >sad</p>
                            <div style=""width:240px; margin: auto;"">
                                <img src=""images/map27_RdBu_scaleDef_orientDef_270.png"" style= ""width:200px""alt=""img"">
                            </div>
                        </div>",0.58,"",0,"",NA,"","images/map27_RdBu_scaleDef_orientDef_270.png","sad",1,27,27,"RdBu","orientDef","scaleDef","270",NA,NA
"","","","","","html-slider-response",105,527315,"0.0-101.0","jfot3pzbtg",19,NA,"<div style=""width:500px;"">
                            <p style=""font-size:50px; font-weight:bold;""
                            >sad</p>
                            <div style=""width:240px; margin: auto;"">
                                <img src=""images/map27_RdGy_scaleRev_orientDef_180.png"" style= ""width:200px""alt=""img"">
                            </div>
                        </div>",0.405,"",0,"",NA,"","images/map27_RdGy_scaleRev_orientDef_180.png","sad",1,27,27,"RdGy","orientDef","scaleRev","180",NA,NA
"","","","","","html-slider-response",106,529338,"0.0-102.0","jfot3pzbtg",19,NA,"<div style=""width:500px;"">
                            <p style=""font-size:50px; font-weight:bold;""
                            >sad</p>
                            <div style=""width:240px; margin: auto;"">
                                <img src=""images/map23_BuGn_scaleDef_orientMir_090.png"" style= ""width:200px""alt=""img"">
                            </div>
                        </div>",0,"",0,"",NA,"","images/map23_BuGn_scaleDef_orientMir_090.png","sad",1,23,23,"BuGn","orientMir","scaleDef","090",NA,NA
"","","","","","html-slider-response",107,531080,"0.0-103.0","jfot3pzbtg",19,NA,"<div style=""width:500px;"">
                            <p style=""font-size:50px; font-weight:bold;""
                            >sad</p>
                            <div style=""width:240px; margin: auto;"">
                                <img src=""images/map13_OrRd_scaleRev_orientMir_180.png"" style= ""width:200px""alt=""img"">
                            </div>
                        </div>",0,"",0,"",NA,"","images/map13_OrRd_scaleRev_orientMir_180.png","sad",1,13,13,"OrRd","orientMir","scaleRev","180",NA,NA
"","","","","","html-slider-response",108,533939,"0.0-104.0","jfot3pzbtg",19,NA,"<div style=""width:500px;"">
                            <p style=""font-size:50px; font-weight:bold;""
                            >sad</p>
                            <div style=""width:240px; margin: auto;"">
                                <img src=""images/map02_Spectral_scaleDef_orientDef_090.png"" style= ""width:200px""alt=""img"">
                            </div>
                        </div>",0.495,"",0,"",NA,"","images/map02_Spectral_scaleDef_orientDef_090.png","sad",1,2,2,"Spectral","orientDef","scaleDef","090",NA,NA
"","","","","","html-slider-response",109,536243,"0.0-105.0","jfot3pzbtg",19,NA,"<div style=""width:500px;"">
                            <p style=""font-size:50px; font-weight:bold;""
                            >sad</p>
                            <div style=""width:240px; margin: auto;"">
                                <img src=""images/map13_Reds_scaleRev_orientDef_000.png"" style= ""width:200px""alt=""img"">
                            </div>
                        </div>",0,"",0,"",NA,"","images/map13_Reds_scaleRev_orientDef_000.png","sad",1,13,13,"Reds","orientDef","scaleRev","000",NA,NA
"","","","","","html-slider-response",110,538645,"0.0-106.0","jfot3pzbtg",19,NA,"<div style=""width:500px;"">
                            <p style=""font-size:50px; font-weight:bold;""
                            >sad</p>
                            <div style=""width:240px; margin: auto;"">
                                <img src=""images/map05_gist_earth_scaleDef_orientMir_270.png"" style= ""width:200px""alt=""img"">
                            </div>
                        </div>",0.5325,"",0,"",NA,"","images/map05_gist_earth_scaleDef_orientMir_270.png","sad",1,5,5,"gist","scaleDef","earth","orientMir",NA,NA
"","","","","","html-slider-response",111,540638,"0.0-107.0","jfot3pzbtg",19,NA,"<div style=""width:500px;"">
                            <p style=""font-size:50px; font-weight:bold;""
                            >sad</p>
                            <div style=""width:240px; margin: auto;"">
                                <img src=""images/map07_turbo_scaleDef_orientDef_090.png"" style= ""width:200px""alt=""img"">
                            </div>
                        </div>",0.545,"",0,"",NA,"","images/map07_turbo_scaleDef_orientDef_090.png","sad",1,7,7,"turbo","orientDef","scaleDef","090",NA,NA
"","","","","","html-slider-response",112,542461,"0.0-108.0","jfot3pzbtg",19,NA,"<div style=""width:500px;"">
                            <p style=""font-size:50px; font-weight:bold;""
                            >sad</p>
                            <div style=""width:240px; margin: auto;"">
                                <img src=""images/map23_YlGn_scaleDef_orientMir_270.png"" style= ""width:200px""alt=""img"">
                            </div>
                        </div>",0,"",0,"",NA,"","images/map23_YlGn_scaleDef_orientMir_270.png","sad",1,23,23,"YlGn","orientMir","scaleDef","270",NA,NA
"","","","","","html-slider-response",113,545354,"0.0-109.0","jfot3pzbtg",19,NA,"<div style=""width:500px;"">
                            <p style=""font-size:50px; font-weight:bold;""
                            >sad</p>
                            <div style=""width:240px; margin: auto;"">
                                <img src=""images/map26_PiYG_scaleRev_orientDef_180.png"" style= ""width:200px""alt=""img"">
                            </div>
                        </div>",0,"",0,"",NA,"","images/map26_PiYG_scaleRev_orientDef_180.png","sad",1,26,26,"PiYG","orientDef","scaleRev","180",NA,NA
"","","","","","html-slider-response",114,547731,"0.0-110.0","jfot3pzbtg",19,NA,"<div style=""width:500px;"">
                            <p style=""font-size:50px; font-weight:bold;""
                            >sad</p>
                            <div style=""width:240px; margin: auto;"">
                                <img src=""images/map07_viridis_scaleRev_orientMir_000.png"" style= ""width:200px""alt=""img"">
                            </div>
                        </div>",0.57,"",0,"",NA,"","images/map07_viridis_scaleRev_orientMir_000.png","sad",1,7,7,"viridis","orientMir","scaleRev","000",NA,NA
"","","","","","html-slider-response",115,550164,"0.0-111.0","jfot3pzbtg",19,NA,"<div style=""width:500px;"">
                            <p style=""font-size:50px; font-weight:bold;""
                            >sad</p>
                            <div style=""width:240px; margin: auto;"">
                                <img src=""images/map27_RdGy_scaleDef_orientDef_090.png"" style= ""width:200px""alt=""img"">
                            </div>
                        </div>",0,"",0,"",NA,"","images/map27_RdGy_scaleDef_orientDef_090.png","sad",1,27,27,"RdGy","orientDef","scaleDef","090",NA,NA
"","","","","","html-slider-response",116,555254,"0.0-112.0","jfot3pzbtg",19,NA,"<div style=""width:500px;"">
                            <p style=""font-size:50px; font-weight:bold;""
                            >sad</p>
                            <div style=""width:240px; margin: auto;"">
                                <img src=""images/map05_vanimo_scaleDef_orientMir_090.png"" style= ""width:200px""alt=""img"">
                            </div>
                        </div>",0,"",0,"",NA,"","images/map05_vanimo_scaleDef_orientMir_090.png","sad",1,5,5,"vanimo","orientMir","scaleDef","090",NA,NA
"","","","","","html-slider-response",117,558612,"0.0-113.0","jfot3pzbtg",19,NA,"<div style=""width:500px;"">
                            <p style=""font-size:50px; font-weight:bold;""
                            >sad</p>
                            <div style=""width:240px; margin: auto;"">
                                <img src=""images/map15_RdPu_scaleRev_orientDef_180.png"" style= ""width:200px""alt=""img"">
                            </div>
                        </div>",0,"",0,"",NA,"","images/map15_RdPu_scaleRev_orientDef_180.png","sad",1,15,15,"RdPu","orientDef","scaleRev","180",NA,NA
"","","","","","html-slider-response",118,560929,"0.0-114.0","jfot3pzbtg",19,NA,"<div style=""width:500px;"">
                            <p style=""font-size:50px; font-weight:bold;""
                            >sad</p>
                            <div style=""width:240px; margin: auto;"">
                                <img src=""images/map10_inferno_scaleRev_orientDef_000.png"" style= ""width:200px""alt=""img"">
                            </div>
                        </div>",0.2325,"",0,"",NA,"","images/map10_inferno_scaleRev_orientDef_000.png","sad",1,10,10,"inferno","orientDef","scaleRev","000",NA,NA
"","","","","","html-slider-response",119,562825,"0.0-115.0","jfot3pzbtg",19,NA,"<div style=""width:500px;"">
                            <p style=""font-size:50px; font-weight:bold;""
                            >sad</p>
                            <div style=""width:240px; margin: auto;"">
                                <img src=""images/map10_cividis_scaleDef_orientDef_270.png"" style= ""width:200px""alt=""img"">
                            </div>
                        </div>",0.54,"",0,"",NA,"","images/map10_cividis_scaleDef_orientDef_270.png","sad",1,10,10,"cividis","orientDef","scaleDef","270",NA,NA
"","","","","","html-slider-response",120,565681,"0.0-116.0","jfot3pzbtg",19,NA,"<div style=""width:500px;"">
                            <p style=""font-size:50px; font-weight:bold;""
                            >sad</p>
                            <div style=""width:240px; margin: auto;"">
                                <img src=""images/map15_BuPu_scaleDef_orientDef_270.png"" style= ""width:200px""alt=""img"">
                            </div>
                        </div>",0.475,"",0,"",NA,"","images/map15_BuPu_scaleDef_orientDef_270.png","sad",1,15,15,"BuPu","orientDef","scaleDef","270",NA,NA
"","","","","","html-slider-response",121,569713,"0.0-117.0","jfot3pzbtg",19,NA,"<div style=""width:500px;"">
                            <p style=""font-size:50px; font-weight:bold;""
                            >sad</p>
                            <div style=""width:240px; margin: auto;"">
                                <img src=""images/map07_inferno_scaleDef_orientMir_270.png"" style= ""width:200px""alt=""img"">
                            </div>
                        </div>",0.345,"",0,"",NA,"","images/map07_inferno_scaleDef_orientMir_270.png","sad",1,7,7,"inferno","orientMir","scaleDef","270",NA,NA
"","","","","","html-slider-response",122,571637,"0.0-118.0","jfot3pzbtg",19,NA,"<div style=""width:500px;"">
                            <p style=""font-size:50px; font-weight:bold;""
                            >sad</p>
                            <div style=""width:240px; margin: auto;"">
                                <img src=""images/map26_PRGn_scaleRev_orientMir_000.png"" style= ""width:200px""alt=""img"">
                            </div>
                        </div>",0.19,"",0,"",NA,"","images/map26_PRGn_scaleRev_orientMir_000.png","sad",1,26,26,"PRGn","orientMir","scaleRev","000",NA,NA
"","","","","","html-slider-response",123,573739,"0.0-119.0","jfot3pzbtg",19,NA,"<div style=""width:500px;"">
                            <p style=""font-size:50px; font-weight:bold;""
                            >sad</p>
                            <div style=""width:240px; margin: auto;"">
                                <img src=""images/map26_BrBG_scaleDef_orientMir_090.png"" style= ""width:200px""alt=""img"">
                            </div>
                        </div>",0.5525,"",0,"",NA,"","images/map26_BrBG_scaleDef_orientMir_090.png","sad",1,26,26,"BrBG","orientMir","scaleDef","090",NA,NA
"","","","","","html-slider-response",124,575789,"0.0-120.0","jfot3pzbtg",19,NA,"<div style=""width:500px;"">
                            <p style=""font-size:50px; font-weight:bold;""
                            >sad</p>
                            <div style=""width:240px; margin: auto;"">
                                <img src=""images/map23_YlGnBu_scaleRev_orientDef_180.png"" style= ""width:200px""alt=""img"">
                            </div>
                        </div>",1,"",0,"",NA,"","images/map23_YlGnBu_scaleRev_orientDef_180.png","sad",1,23,23,"YlGnBu","orientDef","scaleRev","180",NA,NA
"","","","","","html-slider-response",125,578640,"0.0-121.0","jfot3pzbtg",19,NA,"<div style=""width:500px;"">
                            <p style=""font-size:50px; font-weight:bold;""
                            >sad</p>
                            <div style=""width:240px; margin: auto;"">
                                <img src=""images/map27_RdYlBu_scaleRev_orientMir_180.png"" style= ""width:200px""alt=""img"">
                            </div>
                        </div>",0.5325,"",0,"",NA,"","images/map27_RdYlBu_scaleRev_orientMir_180.png","sad",1,27,27,"RdYlBu","orientMir","scaleRev","180",NA,NA
"","","","","","html-slider-response",126,583574,"0.0-122.0","jfot3pzbtg",19,NA,"<div style=""width:500px;"">
                            <p style=""font-size:50px; font-weight:bold;""
                            >sad</p>
                            <div style=""width:240px; margin: auto;"">
                                <img src=""images/map07_gist_earth_scaleRev_orientDef_000.png"" style= ""width:200px""alt=""img"">
                            </div>
                        </div>",0.6275,"",0,"",NA,"","images/map07_gist_earth_scaleRev_orientDef_000.png","sad",1,7,7,"gist","scaleRev","earth","orientDef",NA,NA
"","","","","","html-slider-response",127,585270,"0.0-123.0","jfot3pzbtg",19,NA,"<div style=""width:500px;"">
                            <p style=""font-size:50px; font-weight:bold;""
                            >sad</p>
                            <div style=""width:240px; margin: auto;"">
                                <img src=""images/map15_GnBu_scaleDef_orientMir_090.png"" style= ""width:200px""alt=""img"">
                            </div>
                        </div>",1,"",0,"",NA,"","images/map15_GnBu_scaleDef_orientMir_090.png","sad",1,15,15,"GnBu","orientMir","scaleDef","090",NA,NA
"","","","","","html-slider-response",128,587035,"0.0-124.0","jfot3pzbtg",19,NA,"<div style=""width:500px;"">
                            <p style=""font-size:50px; font-weight:bold;""
                            >sad</p>
                            <div style=""width:240px; margin: auto;"">
                                <img src=""images/map02_RdYlGn_scaleRev_orientDef_000.png"" style= ""width:200px""alt=""img"">
                            </div>
                        </div>",0,"",0,"",NA,"","images/map02_RdYlGn_scaleRev_orientDef_000.png","sad",1,2,2,"RdYlGn","orientDef","scaleRev","000",NA,NA
"","","","","","html-slider-response",129,588898,"0.0-125.0","jfot3pzbtg",19,NA,"<div style=""width:500px;"">
                            <p style=""font-size:50px; font-weight:bold;""
                            >sad</p>
                            <div style=""width:240px; margin: auto;"">
                                <img src=""images/map13_YlOrRd_scaleRev_orientMir_000.png"" style= ""width:200px""alt=""img"">
                            </div>
                        </div>",0,"",0,"",NA,"","images/map13_YlOrRd_scaleRev_orientMir_000.png","sad",1,13,13,"YlOrRd","orientMir","scaleRev","000",NA,NA
"","","","","","html-slider-response",130,591605,"0.0-126.0","jfot3pzbtg",19,NA,"<div style=""width:500px;"">
                            <p style=""font-size:50px; font-weight:bold;""
                            >sad</p>
                            <div style=""width:240px; margin: auto;"">
                                <img src=""images/map02_bwr_scaleDef_orientMir_090.png"" style= ""width:200px""alt=""img"">
                            </div>
                        </div>",0.57,"",0,"",NA,"","images/map02_bwr_scaleDef_orientMir_090.png","sad",1,2,2,"bwr","orientMir","scaleDef","090",NA,NA
"","","","","","html-slider-response",131,593370,"0.0-127.0","jfot3pzbtg",19,NA,"<div style=""width:500px;"">
                            <p style=""font-size:50px; font-weight:bold;""
                            >sad</p>
                            <div style=""width:240px; margin: auto;"">
                                <img src=""images/map27_PuOr_scaleRev_orientDef_000.png"" style= ""width:200px""alt=""img"">
                            </div>
                        </div>",0.38,"",0,"",NA,"","images/map27_PuOr_scaleRev_orientDef_000.png","sad",1,27,27,"PuOr","orientDef","scaleRev","000",NA,NA
"","","","","","html-slider-response",132,595113,"0.0-128.0","jfot3pzbtg",19,NA,"<div style=""width:500px;"">
                            <p style=""font-size:50px; font-weight:bold;""
                            >sad</p>
                            <div style=""width:240px; margin: auto;"">
                                <img src=""images/map15_RdPu_scaleDef_orientDef_090.png"" style= ""width:200px""alt=""img"">
                            </div>
                        </div>",0.2525,"",0,"",NA,"","images/map15_RdPu_scaleDef_orientDef_090.png","sad",1,15,15,"RdPu","orientDef","scaleDef","090",NA,NA
"","","","","","html-slider-response",133,597493,"0.0-129.0","jfot3pzbtg",19,NA,"<div style=""width:500px;"">
                            <p style=""font-size:50px; font-weight:bold;""
                            >sad</p>
                            <div style=""width:240px; margin: auto;"">
                                <img src=""images/map10_Greys_scaleRev_orientMir_180.png"" style= ""width:200px""alt=""img"">
                            </div>
                        </div>",0.62,"",0,"",NA,"","images/map10_Greys_scaleRev_orientMir_180.png","sad",1,10,10,"Greys","orientMir","scaleRev","180",NA,NA
"","","","","","html-slider-response",134,599278,"0.0-130.0","jfot3pzbtg",19,NA,"<div style=""width:500px;"">
                            <p style=""font-size:50px; font-weight:bold;""
                            >sad</p>
                            <div style=""width:240px; margin: auto;"">
                                <img src=""images/map26_PiYG_scaleDef_orientDef_090.png"" style= ""width:200px""alt=""img"">
                            </div>
                        </div>",0.1675,"",0,"",NA,"","images/map26_PiYG_scaleDef_orientDef_090.png","sad",1,26,26,"PiYG","orientDef","scaleDef","090",NA,NA
"","","","","","html-slider-response",135,601211,"0.0-131.0","jfot3pzbtg",19,NA,"<div style=""width:500px;"">
                            <p style=""font-size:50px; font-weight:bold;""
                            >sad</p>
                            <div style=""width:240px; margin: auto;"">
                                <img src=""images/map23_YlGnBu_scaleDef_orientDef_090.png"" style= ""width:200px""alt=""img"">
                            </div>
                        </div>",1,"",0,"",NA,"","images/map23_YlGnBu_scaleDef_orientDef_090.png","sad",1,23,23,"YlGnBu","orientDef","scaleDef","090",NA,NA
"","","","","","html-slider-response",136,603175,"0.0-132.0","jfot3pzbtg",19,NA,"<div style=""width:500px;"">
                            <p style=""font-size:50px; font-weight:bold;""
                            >sad</p>
                            <div style=""width:240px; margin: auto;"">
                                <img src=""images/map26_BrBG_scaleRev_orientMir_180.png"" style= ""width:200px""alt=""img"">
                            </div>
                        </div>",0.59,"",0,"",NA,"","images/map26_BrBG_scaleRev_orientMir_180.png","sad",1,26,26,"BrBG","orientMir","scaleRev","180",NA,NA
"","","","","","html-slider-response",137,604879,"0.0-133.0","jfot3pzbtg",19,NA,"<div style=""width:500px;"">
                            <p style=""font-size:50px; font-weight:bold;""
                            >sad</p>
                            <div style=""width:240px; margin: auto;"">
                                <img src=""images/map13_YlOrBr_scaleRev_orientDef_180.png"" style= ""width:200px""alt=""img"">
                            </div>
                        </div>",0.195,"",0,"",NA,"","images/map13_YlOrBr_scaleRev_orientDef_180.png","sad",1,13,13,"YlOrBr","orientDef","scaleRev","180",NA,NA
"","","","","","html-slider-response",138,606445,"0.0-134.0","jfot3pzbtg",19,NA,"<div style=""width:500px;"">
                            <p style=""font-size:50px; font-weight:bold;""
                            >sad</p>
                            <div style=""width:240px; margin: auto;"">
                                <img src=""images/map12_Reds_scaleDef_orientMir_270.png"" style= ""width:200px""alt=""img"">
                            </div>
                        </div>",0,"",0,"",NA,"","images/map12_Reds_scaleDef_orientMir_270.png","sad",1,12,12,"Reds","orientMir","scaleDef","270",NA,NA
"","","","","","html-slider-response",139,608520,"0.0-135.0","jfot3pzbtg",19,NA,"<div style=""width:500px;"">
                            <p style=""font-size:50px; font-weight:bold;""
                            >sad</p>
                            <div style=""width:240px; margin: auto;"">
                                <img src=""images/map13_YlOrBr_scaleDef_orientDef_090.png"" style= ""width:200px""alt=""img"">
                            </div>
                        </div>",0,"",0,"",NA,"","images/map13_YlOrBr_scaleDef_orientDef_090.png","sad",1,13,13,"YlOrBr","orientDef","scaleDef","090",NA,NA
"","","","","","html-slider-response",140,610519,"0.0-136.0","jfot3pzbtg",19,NA,"<div style=""width:500px;"">
                            <p style=""font-size:50px; font-weight:bold;""
                            >sad</p>
                            <div style=""width:240px; margin: auto;"">
                                <img src=""images/map05_managua_scaleRev_orientMir_000.png"" style= ""width:200px""alt=""img"">
                            </div>
                        </div>",0.565,"",0,"",NA,"","images/map05_managua_scaleRev_orientMir_000.png","sad",1,5,5,"managua","orientMir","scaleRev","000",NA,NA
"","","","","","html-button-response",141,611894,"0.0-137.0","jfot3pzbtg",19,872,"<p>You are doing great!<br></br> You are halway done with the current block. When you are ready to continue, click the 'Continue' button.</p>",0.5,"",NA,"",NA,"","","",NA,NA,NA,"","","","",NA,NA
"","","","","","html-slider-response",142,613218,"0.0-138.0","jfot3pzbtg",19,NA,"<div style=""width:500px;"">
                            <p style=""font-size:50px; font-weight:bold;""
                            >sad</p>
                            <div style=""width:240px; margin: auto;"">
                                <img src=""images/map02_Spectral_scaleRev_orientDef_180.png"" style= ""width:200px""alt=""img"">
                            </div>
                        </div>",0.5475,"",0,"",NA,"","images/map02_Spectral_scaleRev_orientDef_180.png","sad",1,2,2,"Spectral","orientDef","scaleRev","180",NA,NA
"","","","","","html-slider-response",143,614887,"0.0-139.0","jfot3pzbtg",19,NA,"<div style=""width:500px;"">
                            <p style=""font-size:50px; font-weight:bold;""
                            >sad</p>
                            <div style=""width:240px; margin: auto;"">
                                <img src=""images/map10_Greys_scaleDef_orientMir_090.png"" style= ""width:200px""alt=""img"">
                            </div>
                        </div>",0.5975,"",0,"",NA,"","images/map10_Greys_scaleDef_orientMir_090.png","sad",1,10,10,"Greys","orientMir","scaleDef","090",NA,NA
"","","","","","html-slider-response",144,616237,"0.0-140.0","jfot3pzbtg",19,NA,"<div style=""width:500px;"">
                            <p style=""font-size:50px; font-weight:bold;""
                            >sad</p>
                            <div style=""width:240px; margin: auto;"">
                                <img src=""images/map13_PuRd_scaleDef_orientMir_270.png"" style= ""width:200px""alt=""img"">
                            </div>
                        </div>",0.2,"",0,"",NA,"","images/map13_PuRd_scaleDef_orientMir_270.png","sad",1,13,13,"PuRd","orientMir","scaleDef","270",NA,NA
"","","","","","html-slider-response",145,618499,"0.0-141.0","jfot3pzbtg",19,NA,"<div style=""width:500px;"">
                            <p style=""font-size:50px; font-weight:bold;""
                            >sad</p>
                            <div style=""width:240px; margin: auto;"">
                                <img src=""images/map02_bwr_scaleRev_orientMir_180.png"" style= ""width:200px""alt=""img"">
                            </div>
                        </div>",0.5525,"",0,"",NA,"","images/map02_bwr_scaleRev_orientMir_180.png","sad",1,2,2,"bwr","orientMir","scaleRev","180",NA,NA
"","","","","","html-slider-response",146,620195,"0.0-142.0","jfot3pzbtg",19,NA,"<div style=""width:500px;"">
                            <p style=""font-size:50px; font-weight:bold;""
                            >sad</p>
                            <div style=""width:240px; margin: auto;"">
                                <img src=""images/map13_YlOrRd_scaleDef_orientDef_270.png"" style= ""width:200px""alt=""img"">
                            </div>
                        </div>",0.23,"",0,"",NA,"","images/map13_YlOrRd_scaleDef_orientDef_270.png","sad",1,13,13,"YlOrRd","orientDef","scaleDef","270",NA,NA
"","","","","","html-slider-response",147,625051,"0.0-143.0","jfot3pzbtg",19,NA,"<div style=""width:500px;"">
                            <p style=""font-size:50px; font-weight:bold;""
                            >sad</p>
                            <div style=""width:240px; margin: auto;"">
                                <img src=""images/map05_vanimo_scaleRev_orientMir_180.png"" style= ""width:200px""alt=""img"">
                            </div>
                        </div>",0.285,"",0,"",NA,"","images/map05_vanimo_scaleRev_orientMir_180.png","sad",1,5,5,"vanimo","orientMir","scaleRev","180",NA,NA
"","","","","","html-slider-response",148,626904,"0.0-144.0","jfot3pzbtg",19,NA,"<div style=""width:500px;"">
                            <p style=""font-size:50px; font-weight:bold;""
                            >sad</p>
                            <div style=""width:240px; margin: auto;"">
                                <img src=""images/map15_PuBu_scaleDef_orientMir_270.png"" style= ""width:200px""alt=""img"">
                            </div>
                        </div>",1,"",0,"",NA,"","images/map15_PuBu_scaleDef_orientMir_270.png","sad",1,15,15,"PuBu","orientMir","scaleDef","270",NA,NA
"","","","","","html-slider-response",149,628643,"0.0-145.0","jfot3pzbtg",19,NA,"<div style=""width:500px;"">
                            <p style=""font-size:50px; font-weight:bold;""
                            >sad</p>
                            <div style=""width:240px; margin: auto;"">
                                <img src=""images/map02_seismic_scaleDef_orientMir_270.png"" style= ""width:200px""alt=""img"">
                            </div>
                        </div>",0.68,"",0,"",NA,"","images/map02_seismic_scaleDef_orientMir_270.png","sad",1,2,2,"seismic","orientMir","scaleDef","270",NA,NA
"","","","","","html-slider-response",150,630303,"0.0-146.0","jfot3pzbtg",19,NA,"<div style=""width:500px;"">
                            <p style=""font-size:50px; font-weight:bold;""
                            >sad</p>
                            <div style=""width:240px; margin: auto;"">
                                <img src=""images/map10_cividis_scaleRev_orientMir_000.png"" style= ""width:200px""alt=""img"">
                            </div>
                        </div>",0.675,"",0,"",NA,"","images/map10_cividis_scaleRev_orientMir_000.png","sad",1,10,10,"cividis","orientMir","scaleRev","000",NA,NA
"","","","","","html-slider-response",151,631748,"0.0-147.0","jfot3pzbtg",19,NA,"<div style=""width:500px;"">
                            <p style=""font-size:50px; font-weight:bold;""
                            >sad</p>
                            <div style=""width:240px; margin: auto;"">
                                <img src=""images/map12_Blues_scaleRev_orientDef_180.png"" style= ""width:200px""alt=""img"">
                            </div>
                        </div>",1,"",0,"",NA,"","images/map12_Blues_scaleRev_orientDef_180.png","sad",1,12,12,"Blues","orientDef","scaleRev","180",NA,NA
"","","","","","html-slider-response",152,633507,"0.0-148.0","jfot3pzbtg",19,NA,"<div style=""width:500px;"">
                            <p style=""font-size:50px; font-weight:bold;""
                            >sad</p>
                            <div style=""width:240px; margin: auto;"">
                                <img src=""images/map12_Blues_scaleDef_orientDef_090.png"" style= ""width:200px""alt=""img"">
                            </div>
                        </div>",1,"",0,"",NA,"","images/map12_Blues_scaleDef_orientDef_090.png","sad",1,12,12,"Blues","orientDef","scaleDef","090",NA,NA
"","","","","","html-slider-response",153,635203,"0.0-149.0","jfot3pzbtg",19,NA,"<div style=""width:500px;"">
                            <p style=""font-size:50px; font-weight:bold;""
                            >sad</p>
                            <div style=""width:240px; margin: auto;"">
                                <img src=""images/map26_YlGn_scaleRev_orientDef_000.png"" style= ""width:200px""alt=""img"">
                            </div>
                        </div>",0,"",0,"",NA,"","images/map26_YlGn_scaleRev_orientDef_000.png","sad",1,26,26,"YlGn","orientDef","scaleRev","000",NA,NA
"","","","","","html-slider-response",154,636663,"0.0-150.0","jfot3pzbtg",19,NA,"<div style=""width:500px;"">
                            <p style=""font-size:50px; font-weight:bold;""
                            >sad</p>
                            <div style=""width:240px; margin: auto;"">
                                <img src=""images/map23_PuBu_scaleRev_orientDef_000.png"" style= ""width:200px""alt=""img"">
                            </div>
                        </div>",1,"",0,"",NA,"","images/map23_PuBu_scaleRev_orientDef_000.png","sad",1,23,23,"PuBu","orientDef","scaleRev","000",NA,NA
"","","","","","html-slider-response",155,638513,"0.0-151.0","jfot3pzbtg",19,NA,"<div style=""width:500px;"">
                            <p style=""font-size:50px; font-weight:bold;""
                            >sad</p>
                            <div style=""width:240px; margin: auto;"">
                                <img src=""images/map02_coolwarm_scaleDef_orientDef_270.png"" style= ""width:200px""alt=""img"">
                            </div>
                        </div>",0.5525,"",0,"",NA,"","images/map02_coolwarm_scaleDef_orientDef_270.png","sad",1,2,2,"coolwarm","orientDef","scaleDef","270",NA,NA
"","","","","","html-slider-response",156,639958,"0.0-152.0","jfot3pzbtg",19,NA,"<div style=""width:500px;"">
                            <p style=""font-size:50px; font-weight:bold;""
                            >sad</p>
                            <div style=""width:240px; margin: auto;"">
                                <img src=""images/map12_Oranges_scaleDef_orientMir_090.png"" style= ""width:200px""alt=""img"">
                            </div>
                        </div>",0,"",0,"",NA,"","images/map12_Oranges_scaleDef_orientMir_090.png","sad",1,12,12,"Oranges","orientMir","scaleDef","090",NA,NA
"","","","","","html-slider-response",157,641653,"0.0-153.0","jfot3pzbtg",19,NA,"<div style=""width:500px;"">
                            <p style=""font-size:50px; font-weight:bold;""
                            >sad</p>
                            <div style=""width:240px; margin: auto;"">
                                <img src=""images/map12_Purples_scaleRev_orientDef_000.png"" style= ""width:200px""alt=""img"">
                            </div>
                        </div>",0,"",0,"",NA,"","images/map12_Purples_scaleRev_orientDef_000.png","sad",1,12,12,"Purples","orientDef","scaleRev","000",NA,NA
"","","","","","html-slider-response",158,643231,"0.0-154.0","jfot3pzbtg",19,NA,"<div style=""width:500px;"">
                            <p style=""font-size:50px; font-weight:bold;""
                            >sad</p>
                            <div style=""width:240px; margin: auto;"">
                                <img src=""images/map13_OrRd_scaleDef_orientMir_090.png"" style= ""width:200px""alt=""img"">
                            </div>
                        </div>",0,"",0,"",NA,"","images/map13_OrRd_scaleDef_orientMir_090.png","sad",1,13,13,"OrRd","orientMir","scaleDef","090",NA,NA
"","","","","","html-slider-response",159,644880,"0.0-155.0","jfot3pzbtg",19,NA,"<div style=""width:500px;"">
                            <p style=""font-size:50px; font-weight:bold;""
                            >sad</p>
                            <div style=""width:240px; margin: auto;"">
                                <img src=""images/map05_berlin_scaleRev_orientDef_180.png"" style= ""width:200px""alt=""img"">
                            </div>
                        </div>",0.5775,"",0,"",NA,"","images/map05_berlin_scaleRev_orientDef_180.png","sad",1,5,5,"berlin","orientDef","scaleRev","180",NA,NA
"","","","","","html-slider-response",160,646947,"0.0-156.0","jfot3pzbtg",19,NA,"<div style=""width:500px;"">
                            <p style=""font-size:50px; font-weight:bold;""
                            >sad</p>
                            <div style=""width:240px; margin: auto;"">
                                <img src=""images/map05_managua_scaleDef_orientDef_270.png"" style= ""width:200px""alt=""img"">
                            </div>
                        </div>",0.6075,"",0,"",NA,"","images/map05_managua_scaleDef_orientDef_270.png","sad",1,5,5,"managua","orientDef","scaleDef","270",NA,NA
"","","","","","html-slider-response",161,648696,"0.0-157.0","jfot3pzbtg",19,NA,"<div style=""width:500px;"">
                            <p style=""font-size:50px; font-weight:bold;""
                            >sad</p>
                            <div style=""width:240px; margin: auto;"">
                                <img src=""images/map05_berlin_scaleDef_orientDef_090.png"" style= ""width:200px""alt=""img"">
                            </div>
                        </div>",0.625,"",0,"",NA,"","images/map05_berlin_scaleDef_orientDef_090.png","sad",1,5,5,"berlin","orientDef","scaleDef","090",NA,NA
"","","","","","html-slider-response",162,653033,"0.0-158.0","jfot3pzbtg",19,NA,"<div style=""width:500px;"">
                            <p style=""font-size:50px; font-weight:bold;""
                            >sad</p>
                            <div style=""width:240px; margin: auto;"">
                                <img src=""images/map10_magma_scaleDef_orientDef_090.png"" style= ""width:200px""alt=""img"">
                            </div>
                        </div>",0.2875,"",0,"",NA,"","images/map10_magma_scaleDef_orientDef_090.png","sad",1,10,10,"magma","orientDef","scaleDef","090",NA,NA
"","","","","","html-slider-response",163,654811,"0.0-159.0","jfot3pzbtg",19,NA,"<div style=""width:500px;"">
                            <p style=""font-size:50px; font-weight:bold;""
                            >sad</p>
                            <div style=""width:240px; margin: auto;"">
