"success","timeout","failed_images","failed_audio","failed_video","trial_type","trial_index","time_elapsed","internal_node_id","subject_id","condition_num","rt","stimulus","response","question_order","slider_start","practiceTrial","practiceTrialNum","correct","image_path","concept","repetition","map_id","map_num","scale_name","orientation_code","mapping_code","rotation_code","ishihara_plate","correct_response"
"true","false","[]","[]","[]","preload",0,455,"0.0-0.0","ruhm2odon6",34,NA,"",NA,"",NA,"",NA,"","","",NA,NA,NA,"","","","",NA,NA
"","","","","","html-button-response",1,14283,"0.0-1.0","ruhm2odon6",34,13826,"Welcome to our experiment!<p>At the bottom of this screen, you will see a button that says ""Begin Experiment"".<br>Please only click that button when you are ready to complete the 30 minute experiment in one sitting.</p><p> Once you click that button, it will not be possible to restart the experiment.",0.5,"",NA,"",NA,"","","",NA,NA,NA,"","","","",NA,NA
"true","","","","","fullscreen",2,16452,"0.0-2.0","ruhm2odon6",34,1164,"",NA,"",NA,"",NA,"","","",NA,NA,NA,"","","","",NA,NA
"","","","","","survey-multi-select",3,23869,"0.0-3.0","ruhm2odon6",34,7410,"",NA,"[0]",NA,"",NA,"","","",NA,NA,NA,"","","","",NA,NA
"","","","","","html-button-response",4,27349,"0.0-4.0","ruhm2odon6",34,3478,"Welcome! <p> This experiment involves two parts: demographic information, followed by the experimental task.<p> It will take about 30 minutes to complete both parts.",0.5,"",NA,"",NA,"","","",NA,NA,NA,"","","","",NA,NA
"","","","","","survey-text",5,34168,"0.0-5.0","ruhm2odon6",34,6806,"",NA,"",NA,"",NA,"","","",NA,NA,NA,"","","","",NA,NA
"","","","","","html-slider-response",6,60214,"0.0-6.0","ruhm2odon6",34,26042,"<div style='text-align:left; font-size:20px; line-height:25px; width: 1000px;'>
                                During this experiment you will be asked to rate how much you associate maps with                    different concepts.<br> Below, you can see some examples of the maps you will be asked to rate. Above the maps
                    is the list of concepts.<br>You will be asked                    to rate how much you associate each map with each concept on a scale from 'not at all' to 'very much' like the
                    one below. <br><br>
                    Now, please look at the list of concepts and maps. For each concept, think about the map you associate 'very
                    much' with the concept.<br>                     When you see that map during the experiment, please rate it near the 'very much' endpoint of the
                    scale.<br>Now, please think about which map you associate 'not at all'                     with each concept. When you see that map during the experiment, please rate it near the 'not at all' endpoint
                    of the scale.<br>
                    Please use the full range of the scale. That is, if a map is somewhat associated with the concept, you would
                    click partway between the middle point and right side of the scale.                    You will be asked to rate each map for a given concept before moving on to the next concept.<br>Press the
                    'Continue' button for instructions on how to use the slider.                    <br>
                </div>

                <div style=""width: 500px; margin: 0 auto;"">
                    <!-- Centered text paragraphs -->
                    <div style=""text-align: center; width: 500px;"">
                        <p style=""font-size:25px; line-height:15px;"">
                            disgust&nbsp;&nbsp;&nbsp;&nbsp;
                            sad&nbsp;&nbsp;&nbsp;&nbsp;
                            angry&nbsp;&nbsp;&nbsp;&nbsp;
                            happy&nbsp;&nbsp;&nbsp;&nbsp;
                            fearful
                        </p>
                        <!-- <p style=""font-size:20px; line-height:15px;"">sad</p>
                        <p style=""font-size:20px;line-height:15px;"">angry</p>
                        <p style=""font-size:20px;line-height:15px;"">happy</p>
                        <p style=""font-size:20px;line-height:15px;"">fearful</p> -->
                    </div>
            

                    <!-- Grid section -->
                   <div style=""display: flex; justify-content: center; padding-top: 15px;"">
                    <div style=""display: grid; grid-template-columns: repeat(10, 55px); grid-gap: 5px; width: auto;"">
                        <img src=""images/map12_viridis_scaleRev_orientDef_270.png"" alt=""map"" style=""width: 100%;""><img src=""images/map13_Greys_scaleDef_orientMir_000.png"" alt=""map"" style=""width: 100%;""><img src=""images/map10_berlin_scaleRev_orientDef_090.png"" alt=""map"" style=""width: 100%;""><img src=""images/map02_PiYG_scaleDef_orientDef_000.png"" alt=""map"" style=""width: 100%;""><img src=""images/map10_vanimo_scaleDef_orientMir_000.png"" alt=""map"" style=""width: 100%;""><img src=""images/map13_magma_scaleDef_orientDef_000.png"" alt=""map"" style=""width: 100%;""><img src=""images/map02_PRGn_scaleDef_orientDef_180.png"" alt=""map"" style=""width: 100%;""><img src=""images/map12_turbo_scaleDef_orientDef_000.png"" alt=""map"" style=""width: 100%;""><img src=""images/map23_OrRd_scaleDef_orientMir_000.png"" alt=""map"" style=""width: 100%;""><img src=""images/map07_seismic_scaleRev_orientMir_270.png"" alt=""map"" style=""width: 100%;""><img src=""images/map27_PuBuGn_scaleDef_orientDef_180.png"" alt=""map"" style=""width: 100%;""><img src=""images/map12_inferno_scaleRev_orientMir_270.png"" alt=""map"" style=""width: 100%;""><img src=""images/map27_BuGn_scaleDef_orientMir_000.png"" alt=""map"" style=""width: 100%;""><img src=""images/map27_YlGnBu_scaleDef_orientDef_000.png"" alt=""map"" style=""width: 100%;""><img src=""images/map05_RdGy_scaleDef_orientDef_000.png"" alt=""map"" style=""width: 100%;""><img src=""images/map05_RdBu_scaleRev_orientDef_270.png"" alt=""map"" style=""width: 100%;""><img src=""images/map05_RdYlBu_scaleDef_orientMir_000.png"" alt=""map"" style=""width: 100%;""><img src=""images/map02_BrBG_scaleRev_orientMir_090.png"" alt=""map"" style=""width: 100%;""><img src=""images/map07_Spectral_scaleDef_orientDef_000.png"" alt=""map"" style=""width: 100%;""><img src=""images/map15_Blues_scaleDef_orientDef_000.png"" alt=""map"" style=""width: 100%;""><img src=""images/map10_managua_scaleRev_orientDef_270.png"" alt=""map"" style=""width: 100%;""><img src=""images/map23_PuRd_scaleDef_orientMir_180.png"" alt=""map"" style=""width: 100%;""><img src=""images/map26_BuPu_scaleRev_orientDef_270.png"" alt=""map"" style=""width: 100%;""><img src=""images/map13_cividis_scaleDef_orientDef_180.png"" alt=""map"" style=""width: 100%;""><img src=""images/map26_PuBu_scaleDef_orientMir_180.png"" alt=""map"" style=""width: 100%;""><img src=""images/map15_Reds_scaleRev_orientMir_270.png"" alt=""map"" style=""width: 100%;""><img src=""images/map27_YlGn_scaleRev_orientMir_270.png"" alt=""map"" style=""width: 100%;""><img src=""images/map15_Greens_scaleRev_orientDef_270.png"" alt=""map"" style=""width: 100%;""><img src=""images/map12_plasma_scaleDef_orientMir_000.png"" alt=""map"" style=""width: 100%;""><img src=""images/map23_YlOrRd_scaleRev_orientDef_270.png"" alt=""map"" style=""width: 100%;""><img src=""images/map07_bwr_scaleRev_orientMir_090.png"" alt=""map"" style=""width: 100%;""><img src=""images/map10_gist_earth_scaleDef_orientMir_180.png"" alt=""map"" style=""width: 100%;""><img src=""images/map23_YlOrBr_scaleRev_orientDef_090.png"" alt=""map"" style=""width: 100%;""><img src=""images/map15_Oranges_scaleRev_orientMir_090.png"" alt=""map"" style=""width: 100%;""><img src=""images/map26_GnBu_scaleDef_orientMir_000.png"" alt=""map"" style=""width: 100%;""><img src=""images/map05_RdYlGn_scaleDef_orientMir_180.png"" alt=""map"" style=""width: 100%;""><img src=""images/map13_Purples_scaleDef_orientMir_180.png"" alt=""map"" style=""width: 100%;""><img src=""images/map02_PuOr_scaleRev_orientMir_270.png"" alt=""map"" style=""width: 100%;""><img src=""images/map26_RdPu_scaleDef_orientDef_000.png"" alt=""map"" style=""width: 100%;""><img src=""images/map07_coolwarm_scaleRev_orientDef_270.png"" alt=""map"" style=""width: 100%;"">
                    </div>
                </div>

                    <!-- Clear floats -->
                    <div style=""clear: both;""></div>
                </div>
                            ",0.695,"",0,"true",NA,"","","",NA,NA,NA,"","","","",NA,NA
"","","","","","html-button-response",7,67098,"0.0-7.0","ruhm2odon6",34,6883,"<div style=""width:800px;""><p style=""text-align:left"">To move the slider, click and drag your cursor to the location of the scale where you would like to make your rating and then let go. When you let go of the slider, your response will be recorded and the next trial will begin. <br>
                    We are interested in your initial impressions of each map for the given concept, so please go with your first intuition. <br>
                    Before you begin the experiment, there will be four training trials for you to practice using the scale. <br>
                     When you are ready to start the training trials, please click ""Continue"".</p><br></div>",0.5,"",NA,"",NA,"","","",NA,NA,NA,"","","","",NA,NA
"","","","","","html-slider-response",8,70243,"0.0-8.0-0.0","ruhm2odon6",34,NA,"<div style=""width:500px;"">
                                    <p style=""font-size:25px;"">Please move the slider all the way to the <br> right endpoint of the scale</p>

                                    </div>
                                </div>",1,"",0,"true",0,"true","","",NA,NA,NA,"","","","",NA,NA
"","","","","","html-button-response",9,72115,"0.0-8.0-1.0","ruhm2odon6",34,1367,"<p align='center'><b>Good job!</b> Click on 'Continue' to proceed.</p>",0.5,"",NA,"",NA,"","","",NA,NA,NA,"","","","",NA,NA
"","","","","","html-slider-response",10,74260,"0.0-9.0-0.0","ruhm2odon6",34,NA,"<div style=""width:500px;"">
                                    <p style=""font-size:25px;"">Please move the slider all the way to the <br> left endpoint of the scale</p>

                                    </div>
                                </div>",0,"",0,"true",1,"true","","",NA,NA,NA,"","","","",NA,NA
"","","","","","html-button-response",11,75665,"0.0-9.0-1.0","ruhm2odon6",34,902,"<p align='center'><b>Good job!</b> Click on 'Continue' to proceed.</p>",0.5,"",NA,"",NA,"","","",NA,NA,NA,"","","","",NA,NA
"","","","","","html-slider-response",12,80292,"0.0-10.0-0.0","ruhm2odon6",34,NA,"<div style=""width:500px;"">
                                    <p style=""font-size:25px;"">Please move the slider halfway between the center and right endpoint of the scale</p>

                                    </div>
                                </div>",0.7675,"",0,"true",2,"true","","",NA,NA,NA,"","","","",NA,NA
"","","","","","html-button-response",13,81698,"0.0-10.0-1.0","ruhm2odon6",34,902,"<p align='center'><b>Good job!</b> Click on 'Continue' to proceed.</p>",0.5,"",NA,"",NA,"","","",NA,NA,NA,"","","","",NA,NA
"","","","","","html-slider-response",14,83993,"0.0-11.0-0.0","ruhm2odon6",34,NA,"<div style=""width:500px;"">
                                    <p style=""font-size:25px;"">Please move the slider halfway between the center and left endpoint of the scale</p>

                                    </div>
                                </div>",0.2325,"",0,"true",3,"true","","",NA,NA,NA,"","","","",NA,NA
"","","","","","html-button-response",15,85182,"0.0-11.0-1.0","ruhm2odon6",34,685,"<p align='center'><b>Good job!</b> Click on 'Continue' to proceed.</p>",0.5,"",NA,"",NA,"","","",NA,NA,NA,"","","","",NA,NA
"","","","","","html-button-response",16,86315,"0.0-12.0","ruhm2odon6",34,1132,"<p>Great job! You've completed the practice trials. Now you will begin the main task.</p>",0.5,"",NA,"",NA,"","","",NA,NA,NA,"","","","",NA,NA
"","","","","","html-button-response",17,90615,"0.0-13.0","ruhm2odon6",34,4299,"<p>In this block of trials, you will be asked to rate how much you associate each map with:</p > <p style = 'font-size:150%; font-weight: bold'>disgust</p><br></br>",0.5,"",NA,"",NA,"","","",NA,NA,NA,"","","","",NA,NA
"","","","","","html-slider-response",18,95409,"0.0-14.0","ruhm2odon6",34,NA,"<div style=""width:500px;"">
                            <p style=""font-size:50px; font-weight:bold;""
                            >disgust</p>
                            <div style=""width:240px; margin: auto;"">
                                <img src=""images/map13_Greys_scaleRev_orientMir_090.png"" style= ""width:200px""alt=""img"">
                            </div>
                        </div>",0.685,"",0,"",NA,"","images/map13_Greys_scaleRev_orientMir_090.png","disgust",1,13,13,"Greys","orientMir","scaleRev","090",NA,NA
"","","","","","html-slider-response",19,98459,"0.0-15.0","ruhm2odon6",34,NA,"<div style=""width:500px;"">
                            <p style=""font-size:50px; font-weight:bold;""
                            >disgust</p>
                            <div style=""width:240px; margin: auto;"">
                                <img src=""images/map15_Oranges_scaleDef_orientMir_000.png"" style= ""width:200px""alt=""img"">
                            </div>
                        </div>",0.3825,"",0,"",NA,"","images/map15_Oranges_scaleDef_orientMir_000.png","disgust",1,15,15,"Oranges","orientMir","scaleDef","000",NA,NA
"","","","","","html-slider-response",20,100960,"0.0-16.0","ruhm2odon6",34,NA,"<div style=""width:500px;"">
                            <p style=""font-size:50px; font-weight:bold;""
                            >disgust</p>
                            <div style=""width:240px; margin: auto;"">
                                <img src=""images/map10_vanimo_scaleDef_orientMir_000.png"" style= ""width:200px""alt=""img"">
                            </div>
                        </div>",0.77,"",0,"",NA,"","images/map10_vanimo_scaleDef_orientMir_000.png","disgust",1,10,10,"vanimo","orientMir","scaleDef","000",NA,NA
"","","","","","html-slider-response",21,103626,"0.0-17.0","ruhm2odon6",34,NA,"<div style=""width:500px;"">
                            <p style=""font-size:50px; font-weight:bold;""
                            >disgust</p>
                            <div style=""width:240px; margin: auto;"">
                                <img src=""images/map23_YlOrBr_scaleDef_orientDef_000.png"" style= ""width:200px""alt=""img"">
                            </div>
                        </div>",0.5925,"",0,"",NA,"","images/map23_YlOrBr_scaleDef_orientDef_000.png","disgust",1,23,23,"YlOrBr","orientDef","scaleDef","000",NA,NA
"","","","","","html-slider-response",22,106077,"0.0-18.0","ruhm2odon6",34,NA,"<div style=""width:500px;"">
                            <p style=""font-size:50px; font-weight:bold;""
                            >disgust</p>
                            <div style=""width:240px; margin: auto;"">
                                <img src=""images/map13_Purples_scaleDef_orientMir_180.png"" style= ""width:200px""alt=""img"">
                            </div>
                        </div>",0.74,"",0,"",NA,"","images/map13_Purples_scaleDef_orientMir_180.png","disgust",1,13,13,"Purples","orientMir","scaleDef","180",NA,NA
"","","","","","html-slider-response",23,108577,"0.0-19.0","ruhm2odon6",34,NA,"<div style=""width:500px;"">
                            <p style=""font-size:50px; font-weight:bold;""
                            >disgust</p>
                            <div style=""width:240px; margin: auto;"">
                                <img src=""images/map23_PuRd_scaleRev_orientMir_270.png"" style= ""width:200px""alt=""img"">
                            </div>
                        </div>",0.225,"",0,"",NA,"","images/map23_PuRd_scaleRev_orientMir_270.png","disgust",1,23,23,"PuRd","orientMir","scaleRev","270",NA,NA
"","","","","","html-slider-response",24,111043,"0.0-20.0","ruhm2odon6",34,NA,"<div style=""width:500px;"">
                            <p style=""font-size:50px; font-weight:bold;""
                            >disgust</p>
                            <div style=""width:240px; margin: auto;"">
                                <img src=""images/map26_RdPu_scaleRev_orientDef_090.png"" style= ""width:200px""alt=""img"">
                            </div>
                        </div>",0.245,"",0,"",NA,"","images/map26_RdPu_scaleRev_orientDef_090.png","disgust",1,26,26,"RdPu","orientDef","scaleRev","090",NA,NA
"","","","","","html-slider-response",25,114925,"0.0-21.0","ruhm2odon6",34,NA,"<div style=""width:500px;"">
                            <p style=""font-size:50px; font-weight:bold;""
                            >disgust</p>
                            <div style=""width:240px; margin: auto;"">
                                <img src=""images/map10_berlin_scaleDef_orientDef_000.png"" style= ""width:200px""alt=""img"">
                            </div>
                        </div>",0.315,"",0,"",NA,"","images/map10_berlin_scaleDef_orientDef_000.png","disgust",1,10,10,"berlin","orientDef","scaleDef","000",NA,NA
"","","","","","html-slider-response",26,116743,"0.0-22.0","ruhm2odon6",34,NA,"<div style=""width:500px;"">
                            <p style=""font-size:50px; font-weight:bold;""
                            >disgust</p>
                            <div style=""width:240px; margin: auto;"">
                                <img src=""images/map12_turbo_scaleDef_orientDef_000.png"" style= ""width:200px""alt=""img"">
                            </div>
                        </div>",0.39,"",0,"",NA,"","images/map12_turbo_scaleDef_orientDef_000.png","disgust",1,12,12,"turbo","orientDef","scaleDef","000",NA,NA
"","","","","","html-slider-response",27,118808,"0.0-23.0","ruhm2odon6",34,NA,"<div style=""width:500px;"">
                            <p style=""font-size:50px; font-weight:bold;""
                            >disgust</p>
                            <div style=""width:240px; margin: auto;"">
                                <img src=""images/map13_magma_scaleRev_orientDef_090.png"" style= ""width:200px""alt=""img"">
                            </div>
                        </div>",0.2825,"",0,"",NA,"","images/map13_magma_scaleRev_orientDef_090.png","disgust",1,13,13,"magma","orientDef","scaleRev","090",NA,NA
"","","","","","html-slider-response",28,120896,"0.0-24.0","ruhm2odon6",34,NA,"<div style=""width:500px;"">
                            <p style=""font-size:50px; font-weight:bold;""
                            >disgust</p>
                            <div style=""width:240px; margin: auto;"">
                                <img src=""images/map15_Blues_scaleRev_orientDef_090.png"" style= ""width:200px""alt=""img"">
                            </div>
                        </div>",0.2025,"",0,"",NA,"","images/map15_Blues_scaleRev_orientDef_090.png","disgust",1,15,15,"Blues","orientDef","scaleRev","090",NA,NA
"","","","","","html-slider-response",29,123575,"0.0-25.0","ruhm2odon6",34,NA,"<div style=""width:500px;"">
                            <p style=""font-size:50px; font-weight:bold;""
                            >disgust</p>
                            <div style=""width:240px; margin: auto;"">
                                <img src=""images/map23_OrRd_scaleDef_orientMir_000.png"" style= ""width:200px""alt=""img"">
                            </div>
                        </div>",0.6425,"",0,"",NA,"","images/map23_OrRd_scaleDef_orientMir_000.png","disgust",1,23,23,"OrRd","orientMir","scaleDef","000",NA,NA
"","","","","","html-slider-response",30,125593,"0.0-26.0","ruhm2odon6",34,NA,"<div style=""width:500px;"">
                            <p style=""font-size:50px; font-weight:bold;""
                            >disgust</p>
                            <div style=""width:240px; margin: auto;"">
                                <img src=""images/map05_RdGy_scaleRev_orientDef_090.png"" style= ""width:200px""alt=""img"">
                            </div>
                        </div>",0.785,"",0,"",NA,"","images/map05_RdGy_scaleRev_orientDef_090.png","disgust",1,5,5,"RdGy","orientDef","scaleRev","090",NA,NA
"","","","","","html-slider-response",31,127926,"0.0-27.0","ruhm2odon6",34,NA,"<div style=""width:500px;"">
                            <p style=""font-size:50px; font-weight:bold;""
                            >disgust</p>
                            <div style=""width:240px; margin: auto;"">
                                <img src=""images/map15_Oranges_scaleRev_orientMir_090.png"" style= ""width:200px""alt=""img"">
                            </div>
                        </div>",0.365,"",0,"",NA,"","images/map15_Oranges_scaleRev_orientMir_090.png","disgust",1,15,15,"Oranges","orientMir","scaleRev","090",NA,NA
"","","","","","html-slider-response",32,130309,"0.0-28.0","ruhm2odon6",34,NA,"<div style=""width:500px;"">
                            <p style=""font-size:50px; font-weight:bold;""
                            >disgust</p>
                            <div style=""width:240px; margin: auto;"">
                                <img src=""images/map07_bwr_scaleRev_orientMir_090.png"" style= ""width:200px""alt=""img"">
                            </div>
                        </div>",0.315,"",0,"",NA,"","images/map07_bwr_scaleRev_orientMir_090.png","disgust",1,7,7,"bwr","orientMir","scaleRev","090",NA,NA
"","","","","","html-slider-response",33,132792,"0.0-29.0","ruhm2odon6",34,NA,"<div style=""width:500px;"">
                            <p style=""font-size:50px; font-weight:bold;""
                            >disgust</p>
                            <div style=""width:240px; margin: auto;"">
                                <img src=""images/map27_PuBuGn_scaleRev_orientDef_270.png"" style= ""width:200px""alt=""img"">
                            </div>
                        </div>",0.3275,"",0,"",NA,"","images/map27_PuBuGn_scaleRev_orientDef_270.png","disgust",1,27,27,"PuBuGn","orientDef","scaleRev","270",NA,NA
"","","","","","html-slider-response",34,135559,"0.0-30.0","ruhm2odon6",34,NA,"<div style=""width:500px;"">
                            <p style=""font-size:50px; font-weight:bold;""
                            >disgust</p>
                            <div style=""width:240px; margin: auto;"">
                                <img src=""images/map07_seismic_scaleRev_orientMir_270.png"" style= ""width:200px""alt=""img"">
                            </div>
                        </div>",0.8075,"",0,"",NA,"","images/map07_seismic_scaleRev_orientMir_270.png","disgust",1,7,7,"seismic","orientMir","scaleRev","270",NA,NA
"","","","","","html-slider-response",35,137177,"0.0-31.0","ruhm2odon6",34,NA,"<div style=""width:500px;"">
                            <p style=""font-size:50px; font-weight:bold;""
                            >disgust</p>
                            <div style=""width:240px; margin: auto;"">
                                <img src=""images/map27_PuBuGn_scaleDef_orientDef_180.png"" style= ""width:200px""alt=""img"">
                            </div>
                        </div>",0.735,"",0,"",NA,"","images/map27_PuBuGn_scaleDef_orientDef_180.png","disgust",1,27,27,"PuBuGn","orientDef","scaleDef","180",NA,NA
"","","","","","html-slider-response",36,139660,"0.0-32.0","ruhm2odon6",34,NA,"<div style=""width:500px;"">
                            <p style=""font-size:50px; font-weight:bold;""
                            >disgust</p>
                            <div style=""width:240px; margin: auto;"">
                                <img src=""images/map02_PiYG_scaleRev_orientDef_090.png"" style= ""width:200px""alt=""img"">
                            </div>
                        </div>",0.305,"",0,"",NA,"","images/map02_PiYG_scaleRev_orientDef_090.png","disgust",1,2,2,"PiYG","orientDef","scaleRev","090",NA,NA
"","","","","","html-slider-response",37,141625,"0.0-33.0","ruhm2odon6",34,NA,"<div style=""width:500px;"">
                            <p style=""font-size:50px; font-weight:bold;""
                            >disgust</p>
                            <div style=""width:240px; margin: auto;"">
                                <img src=""images/map05_RdYlGn_scaleDef_orientMir_180.png"" style= ""width:200px""alt=""img"">
                            </div>
                        </div>",0.625,"",0,"",NA,"","images/map05_RdYlGn_scaleDef_orientMir_180.png","disgust",1,5,5,"RdYlGn","orientMir","scaleDef","180",NA,NA
"","","","","","html-slider-response",38,143576,"0.0-34.0","ruhm2odon6",34,NA,"<div style=""width:500px;"">
                            <p style=""font-size:50px; font-weight:bold;""
                            >disgust</p>
                            <div style=""width:240px; margin: auto;"">
                                <img src=""images/map12_plasma_scaleRev_orientMir_090.png"" style= ""width:200px""alt=""img"">
                            </div>
                        </div>",0.3775,"",0,"",NA,"","images/map12_plasma_scaleRev_orientMir_090.png","disgust",1,12,12,"plasma","orientMir","scaleRev","090",NA,NA
"","","","","","html-slider-response",39,145393,"0.0-35.0","ruhm2odon6",34,NA,"<div style=""width:500px;"">
                            <p style=""font-size:50px; font-weight:bold;""
                            >disgust</p>
                            <div style=""width:240px; margin: auto;"">
                                <img src=""images/map12_turbo_scaleRev_orientDef_090.png"" style= ""width:200px""alt=""img"">
                            </div>
                        </div>",0.2975,"",0,"",NA,"","images/map12_turbo_scaleRev_orientDef_090.png","disgust",1,12,12,"turbo","orientDef","scaleRev","090",NA,NA
"","","","","","html-slider-response",40,147493,"0.0-36.0","ruhm2odon6",34,NA,"<div style=""width:500px;"">
                            <p style=""font-size:50px; font-weight:bold;""
                            >disgust</p>
                            <div style=""width:240px; margin: auto;"">
                                <img src=""images/map15_Blues_scaleDef_orientDef_000.png"" style= ""width:200px""alt=""img"">
                            </div>
                        </div>",0.345,"",0,"",NA,"","images/map15_Blues_scaleDef_orientDef_000.png","disgust",1,15,15,"Blues","orientDef","scaleDef","000",NA,NA
"","","","","","html-slider-response",41,149542,"0.0-37.0","ruhm2odon6",34,NA,"<div style=""width:500px;"">
                            <p style=""font-size:50px; font-weight:bold;""
                            >disgust</p>
                            <div style=""width:240px; margin: auto;"">
                                <img src=""images/map15_Greens_scaleDef_orientDef_180.png"" style= ""width:200px""alt=""img"">
                            </div>
                        </div>",1,"",0,"",NA,"","images/map15_Greens_scaleDef_orientDef_180.png","disgust",1,15,15,"Greens","orientDef","scaleDef","180",NA,NA
"","","","","","html-slider-response",42,151627,"0.0-38.0","ruhm2odon6",34,NA,"<div style=""width:500px;"">
                            <p style=""font-size:50px; font-weight:bold;""
                            >disgust</p>
                            <div style=""width:240px; margin: auto;"">
                                <img src=""images/map12_viridis_scaleDef_orientDef_180.png"" style= ""width:200px""alt=""img"">
                            </div>
                        </div>",1,"",0,"",NA,"","images/map12_viridis_scaleDef_orientDef_180.png","disgust",1,12,12,"viridis","orientDef","scaleDef","180",NA,NA
"","","","","","html-slider-response",43,153874,"0.0-39.0","ruhm2odon6",34,NA,"<div style=""width:500px;"">
                            <p style=""font-size:50px; font-weight:bold;""
                            >disgust</p>
                            <div style=""width:240px; margin: auto;"">
                                <img src=""images/map02_PRGn_scaleRev_orientDef_270.png"" style= ""width:200px""alt=""img"">
                            </div>
                        </div>",0.735,"",0,"",NA,"","images/map02_PRGn_scaleRev_orientDef_270.png","disgust",1,2,2,"PRGn","orientDef","scaleRev","270",NA,NA
"","","","","","html-slider-response",44,155811,"0.0-40.0","ruhm2odon6",34,NA,"<div style=""width:500px;"">
                            <p style=""font-size:50px; font-weight:bold;""
                            >disgust</p>
                            <div style=""width:240px; margin: auto;"">
                                <img src=""images/map07_Spectral_scaleRev_orientDef_090.png"" style= ""width:200px""alt=""img"">
                            </div>
                        </div>",0.2875,"",0,"",NA,"","images/map07_Spectral_scaleRev_orientDef_090.png","disgust",1,7,7,"Spectral","orientDef","scaleRev","090",NA,NA
"","","","","","html-slider-response",45,158242,"0.0-41.0","ruhm2odon6",34,NA,"<div style=""width:500px;"">
                            <p style=""font-size:50px; font-weight:bold;""
                            >disgust</p>
                            <div style=""width:240px; margin: auto;"">
                                <img src=""images/map27_YlGn_scaleRev_orientMir_270.png"" style= ""width:200px""alt=""img"">
                            </div>
                        </div>",1,"",0,"",NA,"","images/map27_YlGn_scaleRev_orientMir_270.png","disgust",1,27,27,"YlGn","orientMir","scaleRev","270",NA,NA
"","","","","","html-slider-response",46,159575,"0.0-42.0","ruhm2odon6",34,NA,"<div style=""width:500px;"">
                            <p style=""font-size:50px; font-weight:bold;""
                            >disgust</p>
                            <div style=""width:240px; margin: auto;"">
                                <img src=""images/map27_BuGn_scaleDef_orientMir_000.png"" style= ""width:200px""alt=""img"">
                            </div>
                        </div>",0.5275,"",0,"",NA,"","images/map27_BuGn_scaleDef_orientMir_000.png","disgust",1,27,27,"BuGn","orientMir","scaleDef","000",NA,NA
"","","","","","html-slider-response",47,162225,"0.0-43.0","ruhm2odon6",34,NA,"<div style=""width:500px;"">
                            <p style=""font-size:50px; font-weight:bold;""
                            >disgust</p>
                            <div style=""width:240px; margin: auto;"">
                                <img src=""images/map10_berlin_scaleRev_orientDef_090.png"" style= ""width:200px""alt=""img"">
                            </div>
                        </div>",0.3625,"",0,"",NA,"","images/map10_berlin_scaleRev_orientDef_090.png","disgust",1,10,10,"berlin","orientDef","scaleRev","090",NA,NA
"","","","","","html-slider-response",48,164692,"0.0-44.0","ruhm2odon6",34,NA,"<div style=""width:500px;"">
                            <p style=""font-size:50px; font-weight:bold;""
                            >disgust</p>
                            <div style=""width:240px; margin: auto;"">
                                <img src=""images/map05_RdYlBu_scaleRev_orientMir_090.png"" style= ""width:200px""alt=""img"">
                            </div>
                        </div>",0.355,"",0,"",NA,"","images/map05_RdYlBu_scaleRev_orientMir_090.png","disgust",1,5,5,"RdYlBu","orientMir","scaleRev","090",NA,NA
"","","","","","html-slider-response",49,166559,"0.0-45.0","ruhm2odon6",34,NA,"<div style=""width:500px;"">
                            <p style=""font-size:50px; font-weight:bold;""
                            >disgust</p>
                            <div style=""width:240px; margin: auto;"">
                                <img src=""images/map05_RdYlBu_scaleDef_orientMir_000.png"" style= ""width:200px""alt=""img"">
                            </div>
                        </div>",0.3725,"",0,"",NA,"","images/map05_RdYlBu_scaleDef_orientMir_000.png","disgust",1,5,5,"RdYlBu","orientMir","scaleDef","000",NA,NA
"","","","","","html-slider-response",50,168708,"0.0-46.0","ruhm2odon6",34,NA,"<div style=""width:500px;"">
                            <p style=""font-size:50px; font-weight:bold;""
                            >disgust</p>
                            <div style=""width:240px; margin: auto;"">
                                <img src=""images/map15_Reds_scaleDef_orientMir_180.png"" style= ""width:200px""alt=""img"">
                            </div>
                        </div>",0.2175,"",0,"",NA,"","images/map15_Reds_scaleDef_orientMir_180.png","disgust",1,15,15,"Reds","orientMir","scaleDef","180",NA,NA
"","","","","","html-slider-response",51,170875,"0.0-47.0","ruhm2odon6",34,NA,"<div style=""width:500px;"">
                            <p style=""font-size:50px; font-weight:bold;""
                            >disgust</p>
                            <div style=""width:240px; margin: auto;"">
                                <img src=""images/map05_RdBu_scaleRev_orientDef_270.png"" style= ""width:200px""alt=""img"">
                            </div>
                        </div>",0.245,"",0,"",NA,"","images/map05_RdBu_scaleRev_orientDef_270.png","disgust",1,5,5,"RdBu","orientDef","scaleRev","270",NA,NA
"","","","","","html-slider-response",52,172692,"0.0-48.0","ruhm2odon6",34,NA,"<div style=""width:500px;"">
                            <p style=""font-size:50px; font-weight:bold;""
                            >disgust</p>
                            <div style=""width:240px; margin: auto;"">
                                <img src=""images/map02_PRGn_scaleDef_orientDef_180.png"" style= ""width:200px""alt=""img"">
                            </div>
                        </div>",1,"",0,"",NA,"","images/map02_PRGn_scaleDef_orientDef_180.png","disgust",1,2,2,"PRGn","orientDef","scaleDef","180",NA,NA
"","","","","","html-slider-response",53,175526,"0.0-49.0","ruhm2odon6",34,NA,"<div style=""width:500px;"">
                            <p style=""font-size:50px; font-weight:bold;""
                            >disgust</p>
                            <div style=""width:240px; margin: auto;"">
                                <img src=""images/map10_managua_scaleDef_orientDef_180.png"" style= ""width:200px""alt=""img"">
                            </div>
                        </div>",0.3125,"",0,"",NA,"","images/map10_managua_scaleDef_orientDef_180.png","disgust",1,10,10,"managua","orientDef","scaleDef","180",NA,NA
"","","","","","html-slider-response",54,177524,"0.0-50.0","ruhm2odon6",34,NA,"<div style=""width:500px;"">
                            <p style=""font-size:50px; font-weight:bold;""
                            >disgust</p>
                            <div style=""width:240px; margin: auto;"">
                                <img src=""images/map23_YlOrBr_scaleRev_orientDef_090.png"" style= ""width:200px""alt=""img"">
                            </div>
                        </div>",0.2625,"",0,"",NA,"","images/map23_YlOrBr_scaleRev_orientDef_090.png","disgust",1,23,23,"YlOrBr","orientDef","scaleRev","090",NA,NA
"","","","","","html-slider-response",55,179344,"0.0-51.0","ruhm2odon6",34,NA,"<div style=""width:500px;"">
                            <p style=""font-size:50px; font-weight:bold;""
                            >disgust</p>
                            <div style=""width:240px; margin: auto;"">
                                <img src=""images/map15_Reds_scaleRev_orientMir_270.png"" style= ""width:200px""alt=""img"">
                            </div>
                        </div>",0.2325,"",0,"",NA,"","images/map15_Reds_scaleRev_orientMir_270.png","disgust",1,15,15,"Reds","orientMir","scaleRev","270",NA,NA
"","","","","","html-slider-response",56,180927,"0.0-52.0","ruhm2odon6",34,NA,"<div style=""width:500px;"">
                            <p style=""font-size:50px; font-weight:bold;""
                            >disgust</p>
                            <div style=""width:240px; margin: auto;"">
                                <img src=""images/map13_cividis_scaleRev_orientDef_270.png"" style= ""width:200px""alt=""img"">
                            </div>
                        </div>",0.215,"",0,"",NA,"","images/map13_cividis_scaleRev_orientDef_270.png","disgust",1,13,13,"cividis","orientDef","scaleRev","270",NA,NA
"","","","","","html-slider-response",57,182458,"0.0-53.0","ruhm2odon6",34,NA,"<div style=""width:500px;"">
                            <p style=""font-size:50px; font-weight:bold;""
                            >disgust</p>
                            <div style=""width:240px; margin: auto;"">
                                <img src=""images/map05_RdBu_scaleDef_orientDef_180.png"" style= ""width:200px""alt=""img"">
                            </div>
                        </div>",0.2725,"",0,"",NA,"","images/map05_RdBu_scaleDef_orientDef_180.png","disgust",1,5,5,"RdBu","orientDef","scaleDef","180",NA,NA
"","","","","","html-button-response",58,185230,"0.0-54.0","ruhm2odon6",34,2269,"<p>You are doing great!<br></br> You are halway done with the current block. When you are ready to continue, click the 'Continue' button.</p>",0.5,"",NA,"",NA,"","","",NA,NA,NA,"","","","",NA,NA
"","","","","","html-slider-response",59,186807,"0.0-55.0","ruhm2odon6",34,NA,"<div style=""width:500px;"">
                            <p style=""font-size:50px; font-weight:bold;""
                            >disgust</p>
                            <div style=""width:240px; margin: auto;"">
                                <img src=""images/map02_PiYG_scaleDef_orientDef_000.png"" style= ""width:200px""alt=""img"">
                            </div>
                        </div>",0.735,"",0,"",NA,"","images/map02_PiYG_scaleDef_orientDef_000.png","disgust",1,2,2,"PiYG","orientDef","scaleDef","000",NA,NA
"","","","","","html-slider-response",60,188576,"0.0-56.0","ruhm2odon6",34,NA,"<div style=""width:500px;"">
                            <p style=""font-size:50px; font-weight:bold;""
                            >disgust</p>
                            <div style=""width:240px; margin: auto;"">
                                <img src=""images/map26_RdPu_scaleDef_orientDef_000.png"" style= ""width:200px""alt=""img"">
                            </div>
                        </div>",0.305,"",0,"",NA,"","images/map26_RdPu_scaleDef_orientDef_000.png","disgust",1,26,26,"RdPu","orientDef","scaleDef","000",NA,NA
"","","","","","html-slider-response",61,190459,"0.0-57.0","ruhm2odon6",34,NA,"<div style=""width:500px;"">
                            <p style=""font-size:50px; font-weight:bold;""
                            >disgust</p>
                            <div style=""width:240px; margin: auto;"">
                                <img src=""images/map23_OrRd_scaleRev_orientMir_090.png"" style= ""width:200px""alt=""img"">
                            </div>
                        </div>",0.28,"",0,"",NA,"","images/map23_OrRd_scaleRev_orientMir_090.png","disgust",1,23,23,"OrRd","orientMir","scaleRev","090",NA,NA
"","","","","","html-slider-response",62,192424,"0.0-58.0","ruhm2odon6",34,NA,"<div style=""width:500px;"">
                            <p style=""font-size:50px; font-weight:bold;""
                            >disgust</p>
                            <div style=""width:240px; margin: auto;"">
                                <img src=""images/map07_bwr_scaleDef_orientMir_000.png"" style= ""width:200px""alt=""img"">
                            </div>
                        </div>",0.79,"",0,"",NA,"","images/map07_bwr_scaleDef_orientMir_000.png","disgust",1,7,7,"bwr","orientMir","scaleDef","000",NA,NA
"","","","","","html-slider-response",63,194025,"0.0-59.0","ruhm2odon6",34,NA,"<div style=""width:500px;"">
                            <p style=""font-size:50px; font-weight:bold;""
                            >disgust</p>
                            <div style=""width:240px; margin: auto;"">
                                <img src=""images/map23_PuRd_scaleDef_orientMir_180.png"" style= ""width:200px""alt=""img"">
                            </div>
                        </div>",0.2675,"",0,"",NA,"","images/map23_PuRd_scaleDef_orientMir_180.png","disgust",1,23,23,"PuRd","orientMir","scaleDef","180",NA,NA
"","","","","","html-slider-response",64,195842,"0.0-60.0","ruhm2odon6",34,NA,"<div style=""width:500px;"">
                            <p style=""font-size:50px; font-weight:bold;""
                            >disgust</p>
                            <div style=""width:240px; margin: auto;"">
                                <img src=""images/map13_magma_scaleDef_orientDef_000.png"" style= ""width:200px""alt=""img"">
                            </div>
                        </div>",0.175,"",0,"",NA,"","images/map13_magma_scaleDef_orientDef_000.png","disgust",1,13,13,"magma","orientDef","scaleDef","000",NA,NA
"","","","","","html-slider-response",65,197643,"0.0-61.0","ruhm2odon6",34,NA,"<div style=""width:500px;"">
                            <p style=""font-size:50px; font-weight:bold;""
                            >disgust</p>
                            <div style=""width:240px; margin: auto;"">
                                <img src=""images/map26_BuPu_scaleDef_orientDef_180.png"" style= ""width:200px""alt=""img"">
                            </div>
                        </div>",0.255,"",0,"",NA,"","images/map26_BuPu_scaleDef_orientDef_180.png","disgust",1,26,26,"BuPu","orientDef","scaleDef","180",NA,NA
"","","","","","html-slider-response",66,199975,"0.0-62.0","ruhm2odon6",34,NA,"<div style=""width:500px;"">
                            <p style=""font-size:50px; font-weight:bold;""
                            >disgust</p>
                            <div style=""width:240px; margin: auto;"">
                                <img src=""images/map10_gist_earth_scaleRev_orientMir_270.png"" style= ""width:200px""alt=""img"">
                            </div>
                        </div>",0.6675,"",0,"",NA,"","images/map10_gist_earth_scaleRev_orientMir_270.png","disgust",1,10,10,"gist","scaleRev","earth","orientMir",NA,NA
"","","","","","html-slider-response",67,201759,"0.0-63.0","ruhm2odon6",34,NA,"<div style=""width:500px;"">
                            <p style=""font-size:50px; font-weight:bold;""
                            >disgust</p>
                            <div style=""width:240px; margin: auto;"">
                                <img src=""images/map12_inferno_scaleDef_orientMir_180.png"" style= ""width:200px""alt=""img"">
                            </div>
                        </div>",0.295,"",0,"",NA,"","images/map12_inferno_scaleDef_orientMir_180.png","disgust",1,12,12,"inferno","orientMir","scaleDef","180",NA,NA
"","","","","","html-slider-response",68,203960,"0.0-64.0","ruhm2odon6",34,NA,"<div style=""width:500px;"">
                            <p style=""font-size:50px; font-weight:bold;""
                            >disgust</p>
                            <div style=""width:240px; margin: auto;"">
                                <img src=""images/map27_YlGnBu_scaleDef_orientDef_000.png"" style= ""width:200px""alt=""img"">
                            </div>
                        </div>",0.3225,"",0,"",NA,"","images/map27_YlGnBu_scaleDef_orientDef_000.png","disgust",1,27,27,"YlGnBu","orientDef","scaleDef","000",NA,NA
"","","","","","html-slider-response",69,205991,"0.0-65.0","ruhm2odon6",34,NA,"<div style=""width:500px;"">
                            <p style=""font-size:50px; font-weight:bold;""
                            >disgust</p>
                            <div style=""width:240px; margin: auto;"">
                                <img src=""images/map26_PuBu_scaleDef_orientMir_180.png"" style= ""width:200px""alt=""img"">
                            </div>
                        </div>",0.315,"",0,"",NA,"","images/map26_PuBu_scaleDef_orientMir_180.png","disgust",1,26,26,"PuBu","orientMir","scaleDef","180",NA,NA
"","","","","","html-slider-response",70,207791,"0.0-66.0","ruhm2odon6",34,NA,"<div style=""width:500px;"">
                            <p style=""font-size:50px; font-weight:bold;""
                            >disgust</p>
                            <div style=""width:240px; margin: auto;"">
                                <img src=""images/map07_coolwarm_scaleDef_orientDef_180.png"" style= ""width:200px""alt=""img"">
                            </div>
                        </div>",0.34,"",0,"",NA,"","images/map07_coolwarm_scaleDef_orientDef_180.png","disgust",1,7,7,"coolwarm","orientDef","scaleDef","180",NA,NA
"","","","","","html-slider-response",71,209608,"0.0-67.0","ruhm2odon6",34,NA,"<div style=""width:500px;"">
                            <p style=""font-size:50px; font-weight:bold;""
                            >disgust</p>
                            <div style=""width:240px; margin: auto;"">
                                <img src=""images/map23_YlOrRd_scaleDef_orientDef_180.png"" style= ""width:200px""alt=""img"">
                            </div>
                        </div>",0.295,"",0,"",NA,"","images/map23_YlOrRd_scaleDef_orientDef_180.png","disgust",1,23,23,"YlOrRd","orientDef","scaleDef","180",NA,NA
"","","","","","html-slider-response",72,211541,"0.0-68.0","ruhm2odon6",34,NA,"<div style=""width:500px;"">
                            <p style=""font-size:50px; font-weight:bold;""
                            >disgust</p>
                            <div style=""width:240px; margin: auto;"">
                                <img src=""images/map07_Spectral_scaleDef_orientDef_000.png"" style= ""width:200px""alt=""img"">
                            </div>
                        </div>",0.3075,"",0,"",NA,"","images/map07_Spectral_scaleDef_orientDef_000.png","disgust",1,7,7,"Spectral","orientDef","scaleDef","000",NA,NA
"","","","","","html-slider-response",73,213491,"0.0-69.0","ruhm2odon6",34,NA,"<div style=""width:500px;"">
                            <p style=""font-size:50px; font-weight:bold;""
                            >disgust</p>
                            <div style=""width:240px; margin: auto;"">
                                <img src=""images/map26_GnBu_scaleRev_orientMir_090.png"" style= ""width:200px""alt=""img"">
                            </div>
                        </div>",0.3225,"",0,"",NA,"","images/map26_GnBu_scaleRev_orientMir_090.png","disgust",1,26,26,"GnBu","orientMir","scaleRev","090",NA,NA
"","","","","","html-slider-response",74,215408,"0.0-70.0","ruhm2odon6",34,NA,"<div style=""width:500px;"">
                            <p style=""font-size:50px; font-weight:bold;""
                            >disgust</p>
                            <div style=""width:240px; margin: auto;"">
                                <img src=""images/map05_RdGy_scaleDef_orientDef_000.png"" style= ""width:200px""alt=""img"">
                            </div>
                        </div>",0.325,"",0,"",NA,"","images/map05_RdGy_scaleDef_orientDef_000.png","disgust",1,5,5,"RdGy","orientDef","scaleDef","000",NA,NA
"","","","","","html-slider-response",75,217192,"0.0-71.0","ruhm2odon6",34,NA,"<div style=""width:500px;"">
                            <p style=""font-size:50px; font-weight:bold;""
                            >disgust</p>
                            <div style=""width:240px; margin: auto;"">
                                <img src=""images/map05_RdYlGn_scaleRev_orientMir_270.png"" style= ""width:200px""alt=""img"">
                            </div>
                        </div>",0.265,"",0,"",NA,"","images/map05_RdYlGn_scaleRev_orientMir_270.png","disgust",1,5,5,"RdYlGn","orientMir","scaleRev","270",NA,NA
"","","","","","html-slider-response",76,219572,"0.0-72.0","ruhm2odon6",34,NA,"<div style=""width:500px;"">
                            <p style=""font-size:50px; font-weight:bold;""
                            >disgust</p>
                            <div style=""width:240px; margin: auto;"">
                                <img src=""images/map13_Purples_scaleRev_orientMir_270.png"" style= ""width:200px""alt=""img"">
                            </div>
                        </div>",0.27,"",0,"",NA,"","images/map13_Purples_scaleRev_orientMir_270.png","disgust",1,13,13,"Purples","orientMir","scaleRev","270",NA,NA
"","","","","","html-slider-response",77,224075,"0.0-73.0","ruhm2odon6",34,NA,"<div style=""width:500px;"">
                            <p style=""font-size:50px; font-weight:bold;""
                            >disgust</p>
                            <div style=""width:240px; margin: auto;"">
                                <img src=""images/map12_plasma_scaleDef_orientMir_000.png"" style= ""width:200px""alt=""img"">
                            </div>
                        </div>",0.295,"",0,"",NA,"","images/map12_plasma_scaleDef_orientMir_000.png","disgust",1,12,12,"plasma","orientMir","scaleDef","000",NA,NA
"","","","","","html-slider-response",78,225874,"0.0-74.0","ruhm2odon6",34,NA,"<div style=""width:500px;"">
                            <p style=""font-size:50px; font-weight:bold;""
                            >disgust</p>
                            <div style=""width:240px; margin: auto;"">
                                <img src=""images/map13_Greys_scaleDef_orientMir_000.png"" style= ""width:200px""alt=""img"">
                            </div>
                        </div>",0.2975,"",0,"",NA,"","images/map13_Greys_scaleDef_orientMir_000.png","disgust",1,13,13,"Greys","orientMir","scaleDef","000",NA,NA
"","","","","","html-slider-response",79,227574,"0.0-75.0","ruhm2odon6",34,NA,"<div style=""width:500px;"">
                            <p style=""font-size:50px; font-weight:bold;""
                            >disgust</p>
                            <div style=""width:240px; margin: auto;"">
                                <img src=""images/map26_BuPu_scaleRev_orientDef_270.png"" style= ""width:200px""alt=""img"">
                            </div>
                        </div>",0.3175,"",0,"",NA,"","images/map26_BuPu_scaleRev_orientDef_270.png","disgust",1,26,26,"BuPu","orientDef","scaleRev","270",NA,NA
"","","","","","html-slider-response",80,229357,"0.0-76.0","ruhm2odon6",34,NA,"<div style=""width:500px;"">
                            <p style=""font-size:50px; font-weight:bold;""
                            >disgust</p>
                            <div style=""width:240px; margin: auto;"">
                                <img src=""images/map26_PuBu_scaleRev_orientMir_270.png"" style= ""width:200px""alt=""img"">
                            </div>
                        </div>",0.1775,"",0,"",NA,"","images/map26_PuBu_scaleRev_orientMir_270.png","disgust",1,26,26,"PuBu","orientMir","scaleRev","270",NA,NA
"","","","","","html-slider-response",81,230958,"0.0-77.0","ruhm2odon6",34,NA,"<div style=""width:500px;"">
                            <p style=""font-size:50px; font-weight:bold;""
                            >disgust</p>
                            <div style=""width:240px; margin: auto;"">
                                <img src=""images/map07_seismic_scaleDef_orientMir_180.png"" style= ""width:200px""alt=""img"">
                            </div>
                        </div>",0.405,"",0,"",NA,"","images/map07_seismic_scaleDef_orientMir_180.png","disgust",1,7,7,"seismic","orientMir","scaleDef","180",NA,NA
"","","","","","html-slider-response",82,234590,"0.0-78.0","ruhm2odon6",34,NA,"<div style=""width:500px;"">
                            <p style=""font-size:50px; font-weight:bold;""
                            >disgust</p>
                            <div style=""width:240px; margin: auto;"">
                                <img src=""images/map02_PuOr_scaleDef_orientMir_180.png"" style= ""width:200px""alt=""img"">
                            </div>
                        </div>",0.4225,"",0,"",NA,"","images/map02_PuOr_scaleDef_orientMir_180.png","disgust",1,2,2,"PuOr","orientMir","scaleDef","180",NA,NA
"","","","","","html-slider-response",83,236675,"0.0-79.0","ruhm2odon6",34,NA,"<div style=""width:500px;"">
                            <p style=""font-size:50px; font-weight:bold;""
                            >disgust</p>
                            <div style=""width:240px; margin: auto;"">
                                <img src=""images/map23_YlOrRd_scaleRev_orientDef_270.png"" style= ""width:200px""alt=""img"">
                            </div>
                        </div>",0.2475,"",0,"",NA,"","images/map23_YlOrRd_scaleRev_orientDef_270.png","disgust",1,23,23,"YlOrRd","orientDef","scaleRev","270",NA,NA
"","","","","","html-slider-response",84,238992,"0.0-80.0","ruhm2odon6",34,NA,"<div style=""width:500px;"">
                            <p style=""font-size:50px; font-weight:bold;""
                            >disgust</p>
                            <div style=""width:240px; margin: auto;"">
                                <img src=""images/map12_viridis_scaleRev_orientDef_270.png"" style= ""width:200px""alt=""img"">
                            </div>
                        </div>",0.4075,"",0,"",NA,"","images/map12_viridis_scaleRev_orientDef_270.png","disgust",1,12,12,"viridis","orientDef","scaleRev","270",NA,NA
"","","","","","html-slider-response",85,240692,"0.0-81.0","ruhm2odon6",34,NA,"<div style=""width:500px;"">
                            <p style=""font-size:50px; font-weight:bold;""
                            >disgust</p>
                            <div style=""width:240px; margin: auto;"">
                                <img src=""images/map02_BrBG_scaleDef_orientMir_000.png"" style= ""width:200px""alt=""img"">
                            </div>
                        </div>",0.395,"",0,"",NA,"","images/map02_BrBG_scaleDef_orientMir_000.png","disgust",1,2,2,"BrBG","orientMir","scaleDef","000",NA,NA
"","","","","","html-slider-response",86,242091,"0.0-82.0","ruhm2odon6",34,NA,"<div style=""width:500px;"">
                            <p style=""font-size:50px; font-weight:bold;""
                            >disgust</p>
                            <div style=""width:240px; margin: auto;"">
                                <img src=""images/map26_GnBu_scaleDef_orientMir_000.png"" style= ""width:200px""alt=""img"">
                            </div>
                        </div>",0.36,"",0,"",NA,"","images/map26_GnBu_scaleDef_orientMir_000.png","disgust",1,26,26,"GnBu","orientMir","scaleDef","000",NA,NA
"","","","","","html-slider-response",87,243542,"0.0-83.0","ruhm2odon6",34,NA,"<div style=""width:500px;"">
                            <p style=""font-size:50px; font-weight:bold;""
                            >disgust</p>
                            <div style=""width:240px; margin: auto;"">
                                <img src=""images/map27_YlGnBu_scaleRev_orientDef_090.png"" style= ""width:200px""alt=""img"">
                            </div>
                        </div>",0.33,"",0,"",NA,"","images/map27_YlGnBu_scaleRev_orientDef_090.png","disgust",1,27,27,"YlGnBu","orientDef","scaleRev","090",NA,NA
"","","","","","html-slider-response",88,245075,"0.0-84.0","ruhm2odon6",34,NA,"<div style=""width:500px;"">
                            <p style=""font-size:50px; font-weight:bold;""
                            >disgust</p>
                            <div style=""width:240px; margin: auto;"">
                                <img src=""images/map12_inferno_scaleRev_orientMir_270.png"" style= ""width:200px""alt=""img"">
                            </div>
                        </div>",0.3325,"",0,"",NA,"","images/map12_inferno_scaleRev_orientMir_270.png","disgust",1,12,12,"inferno","orientMir","scaleRev","270",NA,NA
"","","","","","html-slider-response",89,247592,"0.0-85.0","ruhm2odon6",34,NA,"<div style=""width:500px;"">
                            <p style=""font-size:50px; font-weight:bold;""
                            >disgust</p>
                            <div style=""width:240px; margin: auto;"">
                                <img src=""images/map15_Greens_scaleRev_orientDef_270.png"" style= ""width:200px""alt=""img"">
                            </div>
                        </div>",1,"",0,"",NA,"","images/map15_Greens_scaleRev_orientDef_270.png","disgust",1,15,15,"Greens","orientDef","scaleRev","270",NA,NA
"","","","","","html-slider-response",90,249724,"0.0-86.0","ruhm2odon6",34,NA,"<div style=""width:500px;"">
                            <p style=""font-size:50px; font-weight:bold;""
                            >disgust</p>
                            <div style=""width:240px; margin: auto;"">
                                <img src=""images/map27_BuGn_scaleRev_orientMir_090.png"" style= ""width:200px""alt=""img"">
                            </div>
                        </div>",1,"",0,"",NA,"","images/map27_BuGn_scaleRev_orientMir_090.png","disgust",1,27,27,"BuGn","orientMir","scaleRev","090",NA,NA
"","","","","","html-slider-response",91,252224,"0.0-87.0","ruhm2odon6",34,NA,"<div style=""width:500px;"">
                            <p style=""font-size:50px; font-weight:bold;""
                            >disgust</p>
                            <div style=""width:240px; margin: auto;"">
                                <img src=""images/map10_vanimo_scaleRev_orientMir_090.png"" style= ""width:200px""alt=""img"">
                            </div>
                        </div>",0.6775,"",0,"",NA,"","images/map10_vanimo_scaleRev_orientMir_090.png","disgust",1,10,10,"vanimo","orientMir","scaleRev","090",NA,NA
"","","","","","html-slider-response",92,255525,"0.0-88.0","ruhm2odon6",34,NA,"<div style=""width:500px;"">
                            <p style=""font-size:50px; font-weight:bold;""
                            >disgust</p>
                            <div style=""width:240px; margin: auto;"">
                                <img src=""images/map10_gist_earth_scaleDef_orientMir_180.png"" style= ""width:200px""alt=""img"">
                            </div>
                        </div>",0.63,"",0,"",NA,"","images/map10_gist_earth_scaleDef_orientMir_180.png","disgust",1,10,10,"gist","scaleDef","earth","orientMir",NA,NA
"","","","","","html-slider-response",93,257474,"0.0-89.0","ruhm2odon6",34,NA,"<div style=""width:500px;"">
                            <p style=""font-size:50px; font-weight:bold;""
                            >disgust</p>
                            <div style=""width:240px; margin: auto;"">
                                <img src=""images/map07_coolwarm_scaleRev_orientDef_270.png"" style= ""width:200px""alt=""img"">
                            </div>
                        </div>",0.3025,"",0,"",NA,"","images/map07_coolwarm_scaleRev_orientDef_270.png","disgust",1,7,7,"coolwarm","orientDef","scaleRev","270",NA,NA
"","","","","","html-slider-response",94,259224,"0.0-90.0","ruhm2odon6",34,NA,"<div style=""width:500px;"">
                            <p style=""font-size:50px; font-weight:bold;""
                            >disgust</p>
                            <div style=""width:240px; margin: auto;"">
                                <img src=""images/map27_YlGn_scaleDef_orientMir_180.png"" style= ""width:200px""alt=""img"">
                            </div>
                        </div>",1,"",0,"",NA,"","images/map27_YlGn_scaleDef_orientMir_180.png","disgust",1,27,27,"YlGn","orientMir","scaleDef","180",NA,NA
"","","","","","html-slider-response",95,261324,"0.0-91.0","ruhm2odon6",34,NA,"<div style=""width:500px;"">
                            <p style=""font-size:50px; font-weight:bold;""
                            >disgust</p>
                            <div style=""width:240px; margin: auto;"">
                                <img src=""images/map02_BrBG_scaleRev_orientMir_090.png"" style= ""width:200px""alt=""img"">
                            </div>
                        </div>",0.645,"",0,"",NA,"","images/map02_BrBG_scaleRev_orientMir_090.png","disgust",1,2,2,"BrBG","orientMir","scaleRev","090",NA,NA
"","","","","","html-slider-response",96,263058,"0.0-92.0","ruhm2odon6",34,NA,"<div style=""width:500px;"">
                            <p style=""font-size:50px; font-weight:bold;""
                            >disgust</p>
                            <div style=""width:240px; margin: auto;"">
                                <img src=""images/map13_cividis_scaleDef_orientDef_180.png"" style= ""width:200px""alt=""img"">
                            </div>
                        </div>",0.315,"",0,"",NA,"","images/map13_cividis_scaleDef_orientDef_180.png","disgust",1,13,13,"cividis","orientDef","scaleDef","180",NA,NA
"","","","","","html-slider-response",97,265125,"0.0-93.0","ruhm2odon6",34,NA,"<div style=""width:500px;"">
                            <p style=""font-size:50px; font-weight:bold;""
                            >disgust</p>
                            <div style=""width:240px; margin: auto;"">
                                <img src=""images/map02_PuOr_scaleRev_orientMir_270.png"" style= ""width:200px""alt=""img"">
                            </div>
                        </div>",0.235,"",0,"",NA,"","images/map02_PuOr_scaleRev_orientMir_270.png","disgust",1,2,2,"PuOr","orientMir","scaleRev","270",NA,NA
"","","","","","html-slider-response",98,266724,"0.0-94.0","ruhm2odon6",34,NA,"<div style=""width:500px;"">
                            <p style=""font-size:50px; font-weight:bold;""
                            >disgust</p>
                            <div style=""width:240px; margin: auto;"">
                                <img src=""images/map10_managua_scaleRev_orientDef_270.png"" style= ""width:200px""alt=""img"">
                            </div>
                        </div>",0.165,"",0,"",NA,"","images/map10_managua_scaleRev_orientDef_270.png","disgust",1,10,10,"managua","orientDef","scaleRev","270",NA,NA
"","","","","","html-button-response",99,269263,"0.0-95.0","ruhm2odon6",34,2036,"<p>Great Job! You've finished block 1.<br></br> You have 4 block(s) left to go.<br></br></p>",0.5,"",NA,"",NA,"","","",NA,NA,NA,"","","","",NA,NA
"","","","","","html-button-response",100,272779,"0.0-96.0","ruhm2odon6",34,3514,"<p>In this block of trials, you will be asked to rate how much you associate each map with:</p > <p style = 'font-size:150%; font-weight: bold'>sad</p><br></br>",0.5,"",NA,"",NA,"","","",NA,NA,NA,"","","","",NA,NA
"","","","","","html-slider-response",101,274607,"0.0-97.0","ruhm2odon6",34,NA,"<div style=""width:500px;"">
                            <p style=""font-size:50px; font-weight:bold;""
                            >sad</p>
                            <div style=""width:240px; margin: auto;"">
                                <img src=""images/map23_OrRd_scaleRev_orientMir_090.png"" style= ""width:200px""alt=""img"">
                            </div>
                        </div>",0.345,"",0,"",NA,"","images/map23_OrRd_scaleRev_orientMir_090.png","sad",1,23,23,"OrRd","orientMir","scaleRev","090",NA,NA
"","","","","","html-slider-response",102,276758,"0.0-98.0","ruhm2odon6",34,NA,"<div style=""width:500px;"">
                            <p style=""font-size:50px; font-weight:bold;""
                            >sad</p>
                            <div style=""width:240px; margin: auto;"">
                                <img src=""images/map12_plasma_scaleDef_orientMir_000.png"" style= ""width:200px""alt=""img"">
                            </div>
                        </div>",0.2225,"",0,"",NA,"","images/map12_plasma_scaleDef_orientMir_000.png","sad",1,12,12,"plasma","orientMir","scaleDef","000",NA,NA
"","","","","","html-slider-response",103,278657,"0.0-99.0","ruhm2odon6",34,NA,"<div style=""width:500px;"">
                            <p style=""font-size:50px; font-weight:bold;""
                            >sad</p>
                            <div style=""width:240px; margin: auto;"">
                                <img src=""images/map27_BuGn_scaleRev_orientMir_090.png"" style= ""width:200px""alt=""img"">
                            </div>
                        </div>",0.24,"",0,"",NA,"","images/map27_BuGn_scaleRev_orientMir_090.png","sad",1,27,27,"BuGn","orientMir","scaleRev","090",NA,NA
"","","","","","html-slider-response",104,280743,"0.0-100.0","ruhm2odon6",34,NA,"<div style=""width:500px;"">
                            <p style=""font-size:50px; font-weight:bold;""
                            >sad</p>
                            <div style=""width:240px; margin: auto;"">
                                <img src=""images/map12_turbo_scaleDef_orientDef_000.png"" style= ""width:200px""alt=""img"">
                            </div>
                        </div>",0.2275,"",0,"",NA,"","images/map12_turbo_scaleDef_orientDef_000.png","sad",1,12,12,"turbo","orientDef","scaleDef","000",NA,NA
"","","","","","html-slider-response",105,282891,"0.0-101.0","ruhm2odon6",34,NA,"<div style=""width:500px;"">
                            <p style=""font-size:50px; font-weight:bold;""
                            >sad</p>
                            <div style=""width:240px; margin: auto;"">
                                <img src=""images/map23_PuRd_scaleRev_orientMir_270.png"" style= ""width:200px""alt=""img"">
                            </div>
                        </div>",0.2125,"",0,"",NA,"","images/map23_PuRd_scaleRev_orientMir_270.png","sad",1,23,23,"PuRd","orientMir","scaleRev","270",NA,NA
"","","","","","html-slider-response",106,284740,"0.0-102.0","ruhm2odon6",34,NA,"<div style=""width:500px;"">
                            <p style=""font-size:50px; font-weight:bold;""
                            >sad</p>
                            <div style=""width:240px; margin: auto;"">
                                <img src=""images/map02_PRGn_scaleRev_orientDef_270.png"" style= ""width:200px""alt=""img"">
                            </div>
                        </div>",0.195,"",0,"",NA,"","images/map02_PRGn_scaleRev_orientDef_270.png","sad",1,2,2,"PRGn","orientDef","scaleRev","270",NA,NA
"","","","","","html-slider-response",107,287024,"0.0-103.0","ruhm2odon6",34,NA,"<div style=""width:500px;"">
                            <p style=""font-size:50px; font-weight:bold;""
                            >sad</p>
                            <div style=""width:240px; margin: auto;"">
                                <img src=""images/map13_magma_scaleRev_orientDef_090.png"" style= ""width:200px""alt=""img"">
                            </div>
                        </div>",0.275,"",0,"",NA,"","images/map13_magma_scaleRev_orientDef_090.png","sad",1,13,13,"magma","orientDef","scaleRev","090",NA,NA
"","","","","","html-slider-response",108,288976,"0.0-104.0","ruhm2odon6",34,NA,"<div style=""width:500px;"">
                            <p style=""font-size:50px; font-weight:bold;""
                            >sad</p>
                            <div style=""width:240px; margin: auto;"">
                                <img src=""images/map02_BrBG_scaleDef_orientMir_000.png"" style= ""width:200px""alt=""img"">
                            </div>
                        </div>",0.665,"",0,"",NA,"","images/map02_BrBG_scaleDef_orientMir_000.png","sad",1,2,2,"BrBG","orientMir","scaleDef","000",NA,NA
"","","","","","html-slider-response",109,291507,"0.0-105.0","ruhm2odon6",34,NA,"<div style=""width:500px;"">
                            <p style=""font-size:50px; font-weight:bold;""
                            >sad</p>
                            <div style=""width:240px; margin: auto;"">
                                <img src=""images/map13_cividis_scaleRev_orientDef_270.png"" style= ""width:200px""alt=""img"">
                            </div>
                        </div>",0.845,"",0,"",NA,"","images/map13_cividis_scaleRev_orientDef_270.png","sad",1,13,13,"cividis","orientDef","scaleRev","270",NA,NA
"","","","","","html-slider-response",110,294191,"0.0-106.0","ruhm2odon6",34,NA,"<div style=""width:500px;"">
                            <p style=""font-size:50px; font-weight:bold;""
                            >sad</p>
                            <div style=""width:240px; margin: auto;"">
                                <img src=""images/map05_RdBu_scaleDef_orientDef_180.png"" style= ""width:200px""alt=""img"">
                            </div>
                        </div>",0.7575,"",0,"",NA,"","images/map05_RdBu_scaleDef_orientDef_180.png","sad",1,5,5,"RdBu","orientDef","scaleDef","180",NA,NA
"","","","","","html-slider-response",111,296142,"0.0-107.0","ruhm2odon6",34,NA,"<div style=""width:500px;"">
                            <p style=""font-size:50px; font-weight:bold;""
                            >sad</p>
                            <div style=""width:240px; margin: auto;"">
                                <img src=""images/map13_cividis_scaleDef_orientDef_180.png"" style= ""width:200px""alt=""img"">
                            </div>
                        </div>",0.9525,"",0,"",NA,"","images/map13_cividis_scaleDef_orientDef_180.png","sad",1,13,13,"cividis","orientDef","scaleDef","180",NA,NA
"","","","","","html-slider-response",112,298191,"0.0-108.0","ruhm2odon6",34,NA,"<div style=""width:500px;"">
                            <p style=""font-size:50px; font-weight:bold;""
                            >sad</p>
                            <div style=""width:240px; margin: auto;"">
                                <img src=""images/map15_Greens_scaleRev_orientDef_270.png"" style= ""width:200px""alt=""img"">
                            </div>
                        </div>",0.2525,"",0,"",NA,"","images/map15_Greens_scaleRev_orientDef_270.png","sad",1,15,15,"Greens","orientDef","scaleRev","270",NA,NA
"","","","","","html-slider-response",113,300324,"0.0-109.0","ruhm2odon6",34,NA,"<div style=""width:500px;"">
                            <p style=""font-size:50px; font-weight:bold;""
                            >sad</p>
                            <div style=""width:240px; margin: auto;"">
                                <img src=""images/map15_Greens_scaleDef_orientDef_180.png"" style= ""width:200px""alt=""img"">
                            </div>
                        </div>",0.25,"",0,"",NA,"","images/map15_Greens_scaleDef_orientDef_180.png","sad",1,15,15,"Greens","orientDef","scaleDef","180",NA,NA
"","","","","","html-slider-response",114,302591,"0.0-110.0","ruhm2odon6",34,NA,"<div style=""width:500px;"">
                            <p style=""font-size:50px; font-weight:bold;""
                            >sad</p>
                            <div style=""width:240px; margin: auto;"">
                                <img src=""images/map13_Greys_scaleRev_orientMir_090.png"" style= ""width:200px""alt=""img"">
                            </div>
                        </div>",0.21,"",0,"",NA,"","images/map13_Greys_scaleRev_orientMir_090.png","sad",1,13,13,"Greys","orientMir","scaleRev","090",NA,NA
"","","","","","html-slider-response",115,304858,"0.0-111.0","ruhm2odon6",34,NA,"<div style=""width:500px;"">
                            <p style=""font-size:50px; font-weight:bold;""
                            >sad</p>
                            <div style=""width:240px; margin: auto;"">
                                <img src=""images/map27_BuGn_scaleDef_orientMir_000.png"" style= ""width:200px""alt=""img"">
                            </div>
                        </div>",0.215,"",0,"",NA,"","images/map27_BuGn_scaleDef_orientMir_000.png","sad",1,27,27,"BuGn","orientMir","scaleDef","000",NA,NA
"","","","","","html-slider-response",116,306792,"0.0-112.0","ruhm2odon6",34,NA,"<div style=""width:500px;"">
                            <p style=""font-size:50px; font-weight:bold;""
                            >sad</p>
                            <div style=""width:240px; margin: auto;"">
                                <img src=""images/map26_PuBu_scaleRev_orientMir_270.png"" style= ""width:200px""alt=""img"">
                            </div>
                        </div>",1,"",0,"",NA,"","images/map26_PuBu_scaleRev_orientMir_270.png","sad",1,26,26,"PuBu","orientMir","scaleRev","270",NA,NA
"","","","","","html-slider-response",117,308857,"0.0-113.0","ruhm2odon6",34,NA,"<div style=""width:500px;"">
                            <p style=""font-size:50px; font-weight:bold;""
                            >sad</p>
                            <div style=""width:240px; margin: auto;"">
                                <img src=""images/map12_viridis_scaleDef_orientDef_180.png"" style= ""width:200px""alt=""img"">
                            </div>
                        </div>",0.6875,"",0,"",NA,"","images/map12_viridis_scaleDef_orientDef_180.png","sad",1,12,12,"viridis","orientDef","scaleDef","180",NA,NA
"","","","","","html-slider-response",118,310924,"0.0-114.0","ruhm2odon6",34,NA,"<div style=""width:500px;"">
                            <p style=""font-size:50px; font-weight:bold;""
                            >sad</p>
                            <div style=""width:240px; margin: auto;"">
                                <img src=""images/map23_YlOrRd_scaleRev_orientDef_270.png"" style= ""width:200px""alt=""img"">
                            </div>
                        </div>",0.19,"",0,"",NA,"","images/map23_YlOrRd_scaleRev_orientDef_270.png","sad",1,23,23,"YlOrRd","orientDef","scaleRev","270",NA,NA
"","","","","","html-slider-response",119,312657,"0.0-115.0","ruhm2odon6",34,NA,"<div style=""width:500px;"">
                            <p style=""font-size:50px; font-weight:bold;""
                            >sad</p>
                            <div style=""width:240px; margin: auto;"">
                                <img src=""images/map26_GnBu_scaleDef_orientMir_000.png"" style= ""width:200px""alt=""img"">
                            </div>
                        </div>",0.6475,"",0,"",NA,"","images/map26_GnBu_scaleDef_orientMir_000.png","sad",1,26,26,"GnBu","orientMir","scaleDef","000",NA,NA
"","","","","","html-slider-response",120,314573,"0.0-116.0","ruhm2odon6",34,NA,"<div style=""width:500px;"">
                            <p style=""font-size:50px; font-weight:bold;""
                            >sad</p>
                            <div style=""width:240px; margin: auto;"">
                                <img src=""images/map07_bwr_scaleRev_orientMir_090.png"" style= ""width:200px""alt=""img"">
                            </div>
                        </div>",0.11,"",0,"",NA,"","images/map07_bwr_scaleRev_orientMir_090.png","sad",1,7,7,"bwr","orientMir","scaleRev","090",NA,NA
"","","","","","html-slider-response",121,316690,"0.0-117.0","ruhm2odon6",34,NA,"<div style=""width:500px;"">
                            <p style=""font-size:50px; font-weight:bold;""
                            >sad</p>
                            <div style=""width:240px; margin: auto;"">
                                <img src=""images/map07_coolwarm_scaleDef_orientDef_180.png"" style= ""width:200px""alt=""img"">
                            </div>
                        </div>",0.125,"",0,"",NA,"","images/map07_coolwarm_scaleDef_orientDef_180.png","sad",1,7,7,"coolwarm","orientDef","scaleDef","180",NA,NA
"","","","","","html-slider-response",122,320424,"0.0-118.0","ruhm2odon6",34,NA,"<div style=""width:500px;"">
                            <p style=""font-size:50px; font-weight:bold;""
                            >sad</p>
                            <div style=""width:240px; margin: auto;"">
                                <img src=""images/map13_Purples_scaleDef_orientMir_180.png"" style= ""width:200px""alt=""img"">
                            </div>
                        </div>",0.58,"",0,"",NA,"","images/map13_Purples_scaleDef_orientMir_180.png","sad",1,13,13,"Purples","orientMir","scaleDef","180",NA,NA
"","","","","","html-slider-response",123,322458,"0.0-119.0","ruhm2odon6",34,NA,"<div style=""width:500px;"">
                            <p style=""font-size:50px; font-weight:bold;""
                            >sad</p>
                            <div style=""width:240px; margin: auto;"">
                                <img src=""images/map13_Purples_scaleRev_orientMir_270.png"" style= ""width:200px""alt=""img"">
                            </div>
                        </div>",0.565,"",0,"",NA,"","images/map13_Purples_scaleRev_orientMir_270.png","sad",1,13,13,"Purples","orientMir","scaleRev","270",NA,NA
"","","","","","html-slider-response",124,324774,"0.0-120.0","ruhm2odon6",34,NA,"<div style=""width:500px;"">
                            <p style=""font-size:50px; font-weight:bold;""
                            >sad</p>
                            <div style=""width:240px; margin: auto;"">
                                <img src=""images/map10_gist_earth_scaleRev_orientMir_270.png"" style= ""width:200px""alt=""img"">
                            </div>
                        </div>",0.595,"",0,"",NA,"","images/map10_gist_earth_scaleRev_orientMir_270.png","sad",1,10,10,"gist","scaleRev","earth","orientMir",NA,NA
"","","","","","html-slider-response",125,326858,"0.0-121.0","ruhm2odon6",34,NA,"<div style=""width:500px;"">
                            <p style=""font-size:50px; font-weight:bold;""
                            >sad</p>
                            <div style=""width:240px; margin: auto;"">
                                <img src=""images/map27_YlGn_scaleDef_orientMir_180.png"" style= ""width:200px""alt=""img"">
                            </div>
                        </div>",0.245,"",0,"",NA,"","images/map27_YlGn_scaleDef_orientMir_180.png","sad",1,27,27,"YlGn","orientMir","scaleDef","180",NA,NA
"","","","","","html-slider-response",126,328675,"0.0-122.0","ruhm2odon6",34,NA,"<div style=""width:500px;"">
                            <p style=""font-size:50px; font-weight:bold;""
                            >sad</p>
                            <div style=""width:240px; margin: auto;"">
                                <img src=""images/map02_PiYG_scaleRev_orientDef_090.png"" style= ""width:200px""alt=""img"">
                            </div>
                        </div>",0.265,"",0,"",NA,"","images/map02_PiYG_scaleRev_orientDef_090.png","sad",1,2,2,"PiYG","orientDef","scaleRev","090",NA,NA
"","","","","","html-slider-response",127,331223,"0.0-123.0","ruhm2odon6",34,NA,"<div style=""width:500px;"">
                            <p style=""font-size:50px; font-weight:bold;""
                            >sad</p>
                            <div style=""width:240px; margin: auto;"">
                                <img src=""images/map26_RdPu_scaleRev_orientDef_090.png"" style= ""width:200px""alt=""img"">
                            </div>
                        </div>",0.285,"",0,"",NA,"","images/map26_RdPu_scaleRev_orientDef_090.png","sad",1,26,26,"RdPu","orientDef","scaleRev","090",NA,NA
"","","","","","html-slider-response",128,333140,"0.0-124.0","ruhm2odon6",34,NA,"<div style=""width:500px;"">
                            <p style=""font-size:50px; font-weight:bold;""
                            >sad</p>
                            <div style=""width:240px; margin: auto;"">
                                <img src=""images/map12_inferno_scaleRev_orientMir_270.png"" style= ""width:200px""alt=""img"">
                            </div>
                        </div>",0.1925,"",0,"",NA,"","images/map12_inferno_scaleRev_orientMir_270.png","sad",1,12,12,"inferno","orientMir","scaleRev","270",NA,NA
"","","","","","html-slider-response",129,335091,"0.0-125.0","ruhm2odon6",34,NA,"<div style=""width:500px;"">
                            <p style=""font-size:50px; font-weight:bold;""
                            >sad</p>
                            <div style=""width:240px; margin: auto;"">
                                <img src=""images/map02_PuOr_scaleDef_orientMir_180.png"" style= ""width:200px""alt=""img"">
                            </div>
                        </div>",0.2475,"",0,"",NA,"","images/map02_PuOr_scaleDef_orientMir_180.png","sad",1,2,2,"PuOr","orientMir","scaleDef","180",NA,NA
"","","","","","html-slider-response",130,337040,"0.0-126.0","ruhm2odon6",34,NA,"<div style=""width:500px;"">
                            <p style=""font-size:50px; font-weight:bold;""
                            >sad</p>
                            <div style=""width:240px; margin: auto;"">
                                <img src=""images/map02_PRGn_scaleDef_orientDef_180.png"" style= ""width:200px""alt=""img"">
                            </div>
                        </div>",0.2625,"",0,"",NA,"","images/map02_PRGn_scaleDef_orientDef_180.png","sad",1,2,2,"PRGn","orientDef","scaleDef","180",NA,NA
"","","","","","html-slider-response",131,338623,"0.0-127.0","ruhm2odon6",34,NA,"<div style=""width:500px;"">
                            <p style=""font-size:50px; font-weight:bold;""
                            >sad</p>
                            <div style=""width:240px; margin: auto;"">
                                <img src=""images/map15_Blues_scaleDef_orientDef_000.png"" style= ""width:200px""alt=""img"">
                            </div>
                        </div>",1,"",0,"",NA,"","images/map15_Blues_scaleDef_orientDef_000.png","sad",1,15,15,"Blues","orientDef","scaleDef","000",NA,NA
"","","","","","html-slider-response",132,340707,"0.0-128.0","ruhm2odon6",34,NA,"<div style=""width:500px;"">
                            <p style=""font-size:50px; font-weight:bold;""
                            >sad</p>
                            <div style=""width:240px; margin: auto;"">
                                <img src=""images/map05_RdYlBu_scaleDef_orientMir_000.png"" style= ""width:200px""alt=""img"">
                            </div>
                        </div>",0.6475,"",0,"",NA,"","images/map05_RdYlBu_scaleDef_orientMir_000.png","sad",1,5,5,"RdYlBu","orientMir","scaleDef","000",NA,NA
"","","","","","html-slider-response",133,342707,"0.0-129.0","ruhm2odon6",34,NA,"<div style=""width:500px;"">
                            <p style=""font-size:50px; font-weight:bold;""
                            >sad</p>
                            <div style=""width:240px; margin: auto;"">
                                <img src=""images/map15_Oranges_scaleDef_orientMir_000.png"" style= ""width:200px""alt=""img"">
                            </div>
                        </div>",0.315,"",0,"",NA,"","images/map15_Oranges_scaleDef_orientMir_000.png","sad",1,15,15,"Oranges","orientMir","scaleDef","000",NA,NA
"","","","","","html-slider-response",134,345257,"0.0-130.0","ruhm2odon6",34,NA,"<div style=""width:500px;"">
                            <p style=""font-size:50px; font-weight:bold;""
                            >sad</p>
                            <div style=""width:240px; margin: auto;"">
                                <img src=""images/map12_viridis_scaleRev_orientDef_270.png"" style= ""width:200px""alt=""img"">
                            </div>
                        </div>",0.245,"",0,"",NA,"","images/map12_viridis_scaleRev_orientDef_270.png","sad",1,12,12,"viridis","orientDef","scaleRev","270",NA,NA
"","","","","","html-slider-response",135,347424,"0.0-131.0","ruhm2odon6",34,NA,"<div style=""width:500px;"">
                            <p style=""font-size:50px; font-weight:bold;""
                            >sad</p>
                            <div style=""width:240px; margin: auto;"">
                                <img src=""images/map12_inferno_scaleDef_orientMir_180.png"" style= ""width:200px""alt=""img"">
                            </div>
                        </div>",0.26,"",0,"",NA,"","images/map12_inferno_scaleDef_orientMir_180.png","sad",1,12,12,"inferno","orientMir","scaleDef","180",NA,NA
"","","","","","html-slider-response",136,349107,"0.0-132.0","ruhm2odon6",34,NA,"<div style=""width:500px;"">
                            <p style=""font-size:50px; font-weight:bold;""
                            >sad</p>
                            <div style=""width:240px; margin: auto;"">
                                <img src=""images/map26_BuPu_scaleDef_orientDef_180.png"" style= ""width:200px""alt=""img"">
                            </div>
                        </div>",0.23,"",0,"",NA,"","images/map26_BuPu_scaleDef_orientDef_180.png","sad",1,26,26,"BuPu","orientDef","scaleDef","180",NA,NA
"","","","","","html-slider-response",137,353173,"0.0-133.0","ruhm2odon6",34,NA,"<div style=""width:500px;"">
                            <p style=""font-size:50px; font-weight:bold;""
                            >sad</p>
                            <div style=""width:240px; margin: auto;"">
                                <img src=""images/map07_bwr_scaleDef_orientMir_000.png"" style= ""width:200px""alt=""img"">
                            </div>
                        </div>",0.445,"",0,"",NA,"","images/map07_bwr_scaleDef_orientMir_000.png","sad",1,7,7,"bwr","orientMir","scaleDef","000",NA,NA
"","","","","","html-slider-response",138,354841,"0.0-134.0","ruhm2odon6",34,NA,"<div style=""width:500px;"">
                            <p style=""font-size:50px; font-weight:bold;""
                            >sad</p>
                            <div style=""width:240px; margin: auto;"">
                                <img src=""images/map23_YlOrBr_scaleDef_orientDef_000.png"" style= ""width:200px""alt=""img"">
                            </div>
                        </div>",0.18,"",0,"",NA,"","images/map23_YlOrBr_scaleDef_orientDef_000.png","sad",1,23,23,"YlOrBr","orientDef","scaleDef","000",NA,NA
"","","","","","html-slider-response",139,357073,"0.0-135.0","ruhm2odon6",34,NA,"<div style=""width:500px;"">
                            <p style=""font-size:50px; font-weight:bold;""
                            >sad</p>
                            <div style=""width:240px; margin: auto;"">
                                <img src=""images/map07_coolwarm_scaleRev_orientDef_270.png"" style= ""width:200px""alt=""img"">
                            </div>
                        </div>",0.44,"",0,"",NA,"","images/map07_coolwarm_scaleRev_orientDef_270.png","sad",1,7,7,"coolwarm","orientDef","scaleRev","270",NA,NA
"","","","","","html-slider-response",140,358690,"0.0-136.0","ruhm2odon6",34,NA,"<div style=""width:500px;"">
                            <p style=""font-size:50px; font-weight:bold;""
                            >sad</p>
                            <div style=""width:240px; margin: auto;"">
                                <img src=""images/map15_Blues_scaleRev_orientDef_090.png"" style= ""width:200px""alt=""img"">
                            </div>
                        </div>",1,"",0,"",NA,"","images/map15_Blues_scaleRev_orientDef_090.png","sad",1,15,15,"Blues","orientDef","scaleRev","090",NA,NA
"","","","","","html-button-response",141,360895,"0.0-137.0","ruhm2odon6",34,1702,"<p>You are doing great!<br></br> You are halway done with the current block. When you are ready to continue, click the 'Continue' button.</p>",0.5,"",NA,"",NA,"","","",NA,NA,NA,"","","","",NA,NA
"","","","","","html-slider-response",142,362973,"0.0-138.0","ruhm2odon6",34,NA,"<div style=""width:500px;"">
                            <p style=""font-size:50px; font-weight:bold;""
                            >sad</p>
                            <div style=""width:240px; margin: auto;"">
                                <img src=""images/map23_PuRd_scaleDef_orientMir_180.png"" style= ""width:200px""alt=""img"">
                            </div>
                        </div>",0.14,"",0,"",NA,"","images/map23_PuRd_scaleDef_orientMir_180.png","sad",1,23,23,"PuRd","orientMir","scaleDef","180",NA,NA
"","","","","","html-slider-response",143,364640,"0.0-139.0","ruhm2odon6",34,NA,"<div style=""width:500px;"">
                            <p style=""font-size:50px; font-weight:bold;""
                            >sad</p>
                            <div style=""width:240px; margin: auto;"">
                                <img src=""images/map26_GnBu_scaleRev_orientMir_090.png"" style= ""width:200px""alt=""img"">
                            </div>
                        </div>",0.68,"",0,"",NA,"","images/map26_GnBu_scaleRev_orientMir_090.png","sad",1,26,26,"GnBu","orientMir","scaleRev","090",NA,NA
"","","","","","html-slider-response",144,366507,"0.0-140.0","ruhm2odon6",34,NA,"<div style=""width:500px;"">
                            <p style=""font-size:50px; font-weight:bold;""
                            >sad</p>
                            <div style=""width:240px; margin: auto;"">
                                <img src=""images/map27_PuBuGn_scaleRev_orientDef_270.png"" style= ""width:200px""alt=""img"">
                            </div>
                        </div>",0.895,"",0,"",NA,"","images/map27_PuBuGn_scaleRev_orientDef_270.png","sad",1,27,27,"PuBuGn","orientDef","scaleRev","270",NA,NA
"","","","","","html-slider-response",145,368540,"0.0-141.0","ruhm2odon6",34,NA,"<div style=""width:500px;"">
                            <p style=""font-size:50px; font-weight:bold;""
                            >sad</p>
                            <div style=""width:240px; margin: auto;"">
                                <img src=""images/map05_RdGy_scaleDef_orientDef_000.png"" style= ""width:200px""alt=""img"">
                            </div>
                        </div>",0.1575,"",0,"",NA,"","images/map05_RdGy_scaleDef_orientDef_000.png","sad",1,5,5,"RdGy","orientDef","scaleDef","000",NA,NA
"","","","","","html-slider-response",146,370323,"0.0-142.0","ruhm2odon6",34,NA,"<div style=""width:500px;"">
                            <p style=""font-size:50px; font-weight:bold;""
                            >sad</p>
                            <div style=""width:240px; margin: auto;"">
                                <img src=""images/map02_PiYG_scaleDef_orientDef_000.png"" style= ""width:200px""alt=""img"">
                            </div>
                        </div>",0.1975,"",0,"",NA,"","images/map02_PiYG_scaleDef_orientDef_000.png","sad",1,2,2,"PiYG","orientDef","scaleDef","000",NA,NA
"","","","","","html-slider-response",147,372123,"0.0-143.0","ruhm2odon6",34,NA,"<div style=""width:500px;"">
                            <p style=""font-size:50px; font-weight:bold;""
                            >sad</p>
                            <div style=""width:240px; margin: auto;"">
                                <img src=""images/map15_Reds_scaleRev_orientMir_270.png"" style= ""width:200px""alt=""img"">
                            </div>
                        </div>",0.1875,"",0,"",NA,"","images/map15_Reds_scaleRev_orientMir_270.png","sad",1,15,15,"Reds","orientMir","scaleRev","270",NA,NA
"","","","","","html-slider-response",148,374074,"0.0-144.0","ruhm2odon6",34,NA,"<div style=""width:500px;"">
                            <p style=""font-size:50px; font-weight:bold;""
                            >sad</p>
                            <div style=""width:240px; margin: auto;"">
                                <img src=""images/map10_managua_scaleRev_orientDef_270.png"" style= ""width:200px""alt=""img"">
                            </div>
                        </div>",0.58,"",0,"",NA,"","images/map10_managua_scaleRev_orientDef_270.png","sad",1,10,10,"managua","orientDef","scaleRev","270",NA,NA
"","","","","","html-slider-response",149,375876,"0.0-145.0","ruhm2odon6",34,NA,"<div style=""width:500px;"">
                            <p style=""font-size:50px; font-weight:bold;""
                            >sad</p>
                            <div style=""width:240px; margin: auto;"">
                                <img src=""images/map07_Spectral_scaleRev_orientDef_090.png"" style= ""width:200px""alt=""img"">
                            </div>
                        </div>",0.3125,"",0,"",NA,"","images/map07_Spectral_scaleRev_orientDef_090.png","sad",1,7,7,"Spectral","orientDef","scaleRev","090",NA,NA
"","","","","","html-slider-response",150,377507,"0.0-146.0","ruhm2odon6",34,NA,"<div style=""width:500px;"">
                            <p style=""font-size:50px; font-weight:bold;""
                            >sad</p>
                            <div style=""width:240px; margin: auto;"">
                                <img src=""images/map23_OrRd_scaleDef_orientMir_000.png"" style= ""width:200px""alt=""img"">
                            </div>
                        </div>",0.195,"",0,"",NA,"","images/map23_OrRd_scaleDef_orientMir_000.png","sad",1,23,23,"OrRd","orientMir","scaleDef","000",NA,NA
"","","","","","html-slider-response",151,379356,"0.0-147.0","ruhm2odon6",34,NA,"<div style=""width:500px;"">
                            <p style=""font-size:50px; font-weight:bold;""
                            >sad</p>
                            <div style=""width:240px; margin: auto;"">
                                <img src=""images/map12_turbo_scaleRev_orientDef_090.png"" style= ""width:200px""alt=""img"">
                            </div>
                        </div>",0.175,"",0,"",NA,"","images/map12_turbo_scaleRev_orientDef_090.png","sad",1,12,12,"turbo","orientDef","scaleRev","090",NA,NA
"","","","","","html-slider-response",152,382207,"0.0-148.0","ruhm2odon6",34,NA,"<div style=""width:500px;"">
                            <p style=""font-size:50px; font-weight:bold;""
                            >sad</p>
                            <div style=""width:240px; margin: auto;"">
                                <img src=""images/map10_gist_earth_scaleDef_orientMir_180.png"" style= ""width:200px""alt=""img"">
                            </div>
                        </div>",0.5775,"",0,"",NA,"","images/map10_gist_earth_scaleDef_orientMir_180.png","sad",1,10,10,"gist","scaleDef","earth","orientMir",NA,NA
"","","","","","html-slider-response",153,385407,"0.0-149.0","ruhm2odon6",34,NA,"<div style=""width:500px;"">
                            <p style=""font-size:50px; font-weight:bold;""
                            >sad</p>
                            <div style=""width:240px; margin: auto;"">
                                <img src=""images/map07_seismic_scaleRev_orientMir_270.png"" style= ""width:200px""alt=""img"">
                            </div>
                        </div>",0.575,"",0,"",NA,"","images/map07_seismic_scaleRev_orientMir_270.png","sad",1,7,7,"seismic","orientMir","scaleRev","270",NA,NA
"","","","","","html-slider-response",154,387354,"0.0-150.0","ruhm2odon6",34,NA,"<div style=""width:500px;"">
                            <p style=""font-size:50px; font-weight:bold;""
                            >sad</p>
                            <div style=""width:240px; margin: auto;"">
                                <img src=""images/map05_RdYlGn_scaleDef_orientMir_180.png"" style= ""width:200px""alt=""img"">
                            </div>
                        </div>",0.21,"",0,"",NA,"","images/map05_RdYlGn_scaleDef_orientMir_180.png","sad",1,5,5,"RdYlGn","orientMir","scaleDef","180",NA,NA
"","","","","","html-slider-response",155,389707,"0.0-151.0","ruhm2odon6",34,NA,"<div style=""width:500px;"">
                            <p style=""font-size:50px; font-weight:bold;""
                            >sad</p>
                            <div style=""width:240px; margin: auto;"">
                                <img src=""images/map13_Greys_scaleDef_orientMir_000.png"" style= ""width:200px""alt=""img"">
                            </div>
                        </div>",1,"",0,"",NA,"","images/map13_Greys_scaleDef_orientMir_000.png","sad",1,13,13,"Greys","orientMir","scaleDef","000",NA,NA
"","","","","","html-slider-response",156,391757,"0.0-152.0","ruhm2odon6",34,NA,"<div style=""width:500px;"">
                            <p style=""font-size:50px; font-weight:bold;""
                            >sad</p>
                            <div style=""width:240px; margin: auto;"">
                                <img src=""images/map10_berlin_scaleDef_orientDef_000.png"" style= ""width:200px""alt=""img"">
                            </div>
                        </div>",0.2175,"",0,"",NA,"","images/map10_berlin_scaleDef_orientDef_000.png","sad",1,10,10,"berlin","orientDef","scaleDef","000",NA,NA
"","","","","","html-slider-response",157,393657,"0.0-153.0","ruhm2odon6",34,NA,"<div style=""width:500px;"">
                            <p style=""font-size:50px; font-weight:bold;""
                            >sad</p>
                            <div style=""width:240px; margin: auto;"">
                                <img src=""images/map26_RdPu_scaleDef_orientDef_000.png"" style= ""width:200px""alt=""img"">
                            </div>
                        </div>",0.2675,"",0,"",NA,"","images/map26_RdPu_scaleDef_orientDef_000.png","sad",1,26,26,"RdPu","orientDef","scaleDef","000",NA,NA
"","","","","","html-slider-response",158,395272,"0.0-154.0","ruhm2odon6",34,NA,"<div style=""width:500px;"">
                            <p style=""font-size:50px; font-weight:bold;""
                            >sad</p>
                            <div style=""width:240px; margin: auto;"">
                                <img src=""images/map26_PuBu_scaleDef_orientMir_180.png"" style= ""width:200px""alt=""img"">
                            </div>
                        </div>",1,"",0,"",NA,"","images/map26_PuBu_scaleDef_orientMir_180.png","sad",1,26,26,"PuBu","orientMir","scaleDef","180",NA,NA
"","","","","","html-slider-response",159,397392,"0.0-155.0","ruhm2odon6",34,NA,"<div style=""width:500px;"">
                            <p style=""font-size:50px; font-weight:bold;""
                            >sad</p>
                            <div style=""width:240px; margin: auto;"">
                                <img src=""images/map05_RdYlGn_scaleRev_orientMir_270.png"" style= ""width:200px""alt=""img"">
                            </div>
                        </div>",0.2725,"",0,"",NA,"","images/map05_RdYlGn_scaleRev_orientMir_270.png","sad",1,5,5,"RdYlGn","orientMir","scaleRev","270",NA,NA
"","","","","","html-slider-response",160,399341,"0.0-156.0","ruhm2odon6",34,NA,"<div style=""width:500px;"">
                            <p style=""font-size:50px; font-weight:bold;""
                            >sad</p>
                            <div style=""width:240px; margin: auto;"">
                                <img src=""images/map13_magma_scaleDef_orientDef_000.png"" style= ""width:200px""alt=""img"">
                            </div>
                        </div>",0.1425,"",0,"",NA,"","images/map13_magma_scaleDef_orientDef_000.png","sad",1,13,13,"magma","orientDef","scaleDef","000",NA,NA
"","","","","","html-slider-response",161,401374,"0.0-157.0","ruhm2odon6",34,NA,"<div style=""width:500px;"">
                            <p style=""font-size:50px; font-weight:bold;""
                            >sad</p>
                            <div style=""width:240px; margin: auto;"">
                                <img src=""images/map12_plasma_scaleRev_orientMir_090.png"" style= ""width:200px""alt=""img"">
                            </div>
                        </div>",0.135,"",0,"",NA,"","images/map12_plasma_scaleRev_orientMir_090.png","sad",1,12,12,"plasma","orientMir","scaleRev","090",NA,NA
"","","","","","html-slider-response",162,403322,"0.0-158.0","ruhm2odon6",34,NA,"<div style=""width:500px;"">
                            <p style=""font-size:50px; font-weight:bold;""
                            >sad</p>
                            <div style=""width:240px; margin: auto;"">
                                <img src=""images/map23_YlOrBr_scaleRev_orientDef_090.png"" style= ""width:200px""alt=""img"">
                            </div>
