"success","timeout","failed_images","failed_audio","failed_video","trial_type","trial_index","time_elapsed","internal_node_id","subject_id","condition_num","rt","stimulus","response","question_order","slider_start","practiceTrial","practiceTrialNum","correct","image_path","concept","repetition","map_id","map_num","scale_name","orientation_code","mapping_code","rotation_code","ishihara_plate","correct_response"
"true","false","[]","[]","[]","preload",0,608,"0.0-0.0","y92alv61wq",48,NA,"",NA,"",NA,"",NA,"","","",NA,NA,NA,"","","","",NA,NA
"","","","","","html-button-response",1,6029,"0.0-1.0","y92alv61wq",48,5419,"Welcome to our experiment!<p>At the bottom of this screen, you will see a button that says ""Begin Experiment"".<br>Please only click that button when you are ready to complete the 30 minute experiment in one sitting.</p><p> Once you click that button, it will not be possible to restart the experiment.",0.5,"",NA,"",NA,"","","",NA,NA,NA,"","","","",NA,NA
"true","","","","","fullscreen",2,8614,"0.0-2.0","y92alv61wq",48,1581,"",NA,"",NA,"",NA,"","","",NA,NA,NA,"","","","",NA,NA
"","","","","","survey-multi-select",3,34846,"0.0-3.0","y92alv61wq",48,26229,"",NA,"[0]",NA,"",NA,"","","",NA,NA,NA,"","","","",NA,NA
"","","","","","html-button-response",4,36511,"0.0-4.0","y92alv61wq",48,1663,"Welcome! <p> This experiment involves two parts: demographic information, followed by the experimental task.<p> It will take about 30 minutes to complete both parts.",0.5,"",NA,"",NA,"","","",NA,NA,NA,"","","","",NA,NA
"","","","","","survey-text",5,57696,"0.0-5.0","y92alv61wq",48,21174,"",NA,"",NA,"",NA,"","","",NA,NA,NA,"","","","",NA,NA
"","","","","","html-slider-response",6,101728,"0.0-6.0","y92alv61wq",48,44029,"<div style='text-align:left; font-size:20px; line-height:25px; width: 1000px;'>
                                During this experiment you will be asked to rate how much you associate maps with                    different concepts.<br> Below, you can see some examples of the maps you will be asked to rate. Above the maps
                    is the list of concepts.<br>You will be asked                    to rate how much you associate each map with each concept on a scale from 'not at all' to 'very much' like the
                    one below. <br><br>
                    Now, please look at the list of concepts and maps. For each concept, think about the map you associate 'very
                    much' with the concept.<br>                     When you see that map during the experiment, please rate it near the 'very much' endpoint of the
                    scale.<br>Now, please think about which map you associate 'not at all'                     with each concept. When you see that map during the experiment, please rate it near the 'not at all' endpoint
                    of the scale.<br>
                    Please use the full range of the scale. That is, if a map is somewhat associated with the concept, you would
                    click partway between the middle point and right side of the scale.                    You will be asked to rate each map for a given concept before moving on to the next concept.<br>Press the
                    'Continue' button for instructions on how to use the slider.                    <br>
                </div>

                <div style=""width: 500px; margin: 0 auto;"">
                    <!-- Centered text paragraphs -->
                    <div style=""text-align: center; width: 500px;"">
                        <p style=""font-size:25px; line-height:15px;"">
                            angry&nbsp;&nbsp;&nbsp;&nbsp;
                            happy&nbsp;&nbsp;&nbsp;&nbsp;
                            sad&nbsp;&nbsp;&nbsp;&nbsp;
                            fearful&nbsp;&nbsp;&nbsp;&nbsp;
                            disgust
                        </p>
                        <!-- <p style=""font-size:20px; line-height:15px;"">happy</p>
                        <p style=""font-size:20px;line-height:15px;"">sad</p>
                        <p style=""font-size:20px;line-height:15px;"">fearful</p>
                        <p style=""font-size:20px;line-height:15px;"">disgust</p> -->
                    </div>
            

                    <!-- Grid section -->
                   <div style=""display: flex; justify-content: center; padding-top: 15px;"">
                    <div style=""display: grid; grid-template-columns: repeat(10, 55px); grid-gap: 5px; width: auto;"">
                        <img src=""images/map15_magma_scaleDef_orientMir_180.png"" alt=""map"" style=""width: 100%;""><img src=""images/map05_PuBuGn_scaleRev_orientDef_090.png"" alt=""map"" style=""width: 100%;""><img src=""images/map15_plasma_scaleRev_orientDef_270.png"" alt=""map"" style=""width: 100%;""><img src=""images/map10_RdBu_scaleRev_orientDef_090.png"" alt=""map"" style=""width: 100%;""><img src=""images/map07_PRGn_scaleRev_orientDef_090.png"" alt=""map"" style=""width: 100%;""><img src=""images/map05_BuGn_scaleRev_orientDef_270.png"" alt=""map"" style=""width: 100%;""><img src=""images/map13_managua_scaleRev_orientDef_090.png"" alt=""map"" style=""width: 100%;""><img src=""images/map27_PuRd_scaleDef_orientMir_000.png"" alt=""map"" style=""width: 100%;""><img src=""images/map05_YlGn_scaleRev_orientMir_090.png"" alt=""map"" style=""width: 100%;""><img src=""images/map27_OrRd_scaleDef_orientDef_180.png"" alt=""map"" style=""width: 100%;""><img src=""images/map23_Greys_scaleRev_orientDef_270.png"" alt=""map"" style=""width: 100%;""><img src=""images/map15_inferno_scaleRev_orientMir_090.png"" alt=""map"" style=""width: 100%;""><img src=""images/map02_PuBu_scaleRev_orientMir_090.png"" alt=""map"" style=""width: 100%;""><img src=""images/map13_vanimo_scaleDef_orientDef_180.png"" alt=""map"" style=""width: 100%;""><img src=""images/map27_RdPu_scaleDef_orientMir_180.png"" alt=""map"" style=""width: 100%;""><img src=""images/map23_Purples_scaleRev_orientMir_090.png"" alt=""map"" style=""width: 100%;""><img src=""images/map10_RdYlBu_scaleDef_orientDef_180.png"" alt=""map"" style=""width: 100%;""><img src=""images/map12_bwr_scaleDef_orientDef_180.png"" alt=""map"" style=""width: 100%;""><img src=""images/map15_viridis_scaleDef_orientDef_000.png"" alt=""map"" style=""width: 100%;""><img src=""images/map07_BrBG_scaleRev_orientDef_270.png"" alt=""map"" style=""width: 100%;""><img src=""images/map27_YlOrRd_scaleDef_orientDef_000.png"" alt=""map"" style=""width: 100%;""><img src=""images/map10_Spectral_scaleDef_orientMir_180.png"" alt=""map"" style=""width: 100%;""><img src=""images/map02_GnBu_scaleDef_orientDef_180.png"" alt=""map"" style=""width: 100%;""><img src=""images/map02_YlGnBu_scaleRev_orientMir_270.png"" alt=""map"" style=""width: 100%;""><img src=""images/map23_cividis_scaleDef_orientDef_000.png"" alt=""map"" style=""width: 100%;""><img src=""images/map10_RdYlGn_scaleDef_orientMir_000.png"" alt=""map"" style=""width: 100%;""><img src=""images/map13_turbo_scaleDef_orientMir_180.png"" alt=""map"" style=""width: 100%;""><img src=""images/map26_Reds_scaleRev_orientMir_090.png"" alt=""map"" style=""width: 100%;""><img src=""images/map02_BuPu_scaleDef_orientDef_000.png"" alt=""map"" style=""width: 100%;""><img src=""images/map26_YlOrBr_scaleDef_orientMir_180.png"" alt=""map"" style=""width: 100%;""><img src=""images/map23_Blues_scaleDef_orientMir_180.png"" alt=""map"" style=""width: 100%;""><img src=""images/map12_berlin_scaleRev_orientMir_270.png"" alt=""map"" style=""width: 100%;""><img src=""images/map12_coolwarm_scaleDef_orientDef_000.png"" alt=""map"" style=""width: 100%;""><img src=""images/map05_PiYG_scaleRev_orientMir_270.png"" alt=""map"" style=""width: 100%;""><img src=""images/map26_Oranges_scaleRev_orientDef_270.png"" alt=""map"" style=""width: 100%;""><img src=""images/map13_gist_earth_scaleRev_orientMir_090.png"" alt=""map"" style=""width: 100%;""><img src=""images/map26_Greens_scaleRev_orientDef_090.png"" alt=""map"" style=""width: 100%;""><img src=""images/map07_RdGy_scaleDef_orientMir_180.png"" alt=""map"" style=""width: 100%;""><img src=""images/map07_PuOr_scaleRev_orientMir_090.png"" alt=""map"" style=""width: 100%;""><img src=""images/map12_seismic_scaleRev_orientMir_090.png"" alt=""map"" style=""width: 100%;"">
                    </div>
                </div>

                    <!-- Clear floats -->
                    <div style=""clear: both;""></div>
                </div>
                            ",0.315,"",0,"true",NA,"","","",NA,NA,NA,"","","","",NA,NA
"","","","","","html-button-response",7,104978,"0.0-7.0","y92alv61wq",48,3249,"<div style=""width:800px;""><p style=""text-align:left"">To move the slider, click and drag your cursor to the location of the scale where you would like to make your rating and then let go. When you let go of the slider, your response will be recorded and the next trial will begin. <br>
                    We are interested in your initial impressions of each map for the given concept, so please go with your first intuition. <br>
                    Before you begin the experiment, there will be four training trials for you to practice using the scale. <br>
                     When you are ready to start the training trials, please click ""Continue"".</p><br></div>",0.5,"",NA,"",NA,"","","",NA,NA,NA,"","","","",NA,NA
"","","","","","html-slider-response",8,108589,"0.0-8.0-0.0","y92alv61wq",48,NA,"<div style=""width:500px;"">
                                    <p style=""font-size:25px;"">Please move the slider all the way to the <br> right endpoint of the scale</p>

                                    </div>
                                </div>",1,"",0,"true",0,"true","","",NA,NA,NA,"","","","",NA,NA
"","","","","","html-button-response",9,110010,"0.0-8.0-1.0","y92alv61wq",48,919,"<p align='center'><b>Good job!</b> Click on 'Continue' to proceed.</p>",0.5,"",NA,"",NA,"","","",NA,NA,NA,"","","","",NA,NA
"","","","","","html-slider-response",10,112076,"0.0-9.0-0.0","y92alv61wq",48,NA,"<div style=""width:500px;"">
                                    <p style=""font-size:25px;"">Please move the slider all the way to the <br> left endpoint of the scale</p>

                                    </div>
                                </div>",0,"",0,"true",1,"true","","",NA,NA,NA,"","","","",NA,NA
"","","","","","html-button-response",11,113478,"0.0-9.0-1.0","y92alv61wq",48,899,"<p align='center'><b>Good job!</b> Click on 'Continue' to proceed.</p>",0.5,"",NA,"",NA,"","","",NA,NA,NA,"","","","",NA,NA
"","","","","","html-slider-response",12,119739,"0.0-10.0-0.0","y92alv61wq",48,NA,"<div style=""width:500px;"">
                                    <p style=""font-size:25px;"">Please move the slider halfway between the center and right endpoint of the scale</p>

                                    </div>
                                </div>",0.78,"",0,"true",2,"false","","",NA,NA,NA,"","","","",NA,NA
"","","","","","html-button-response",13,120978,"0.0-10.0-1.0","y92alv61wq",48,736,"<p align='center'><b>Not quite!</b> The slider was not placed near the instructed located. Click on 'Continue' to try again. </p>",0.5,"",NA,"",NA,"","","",NA,NA,NA,"","","","",NA,NA
"","","","","","html-slider-response",14,127006,"0.0-10.1-0.1","y92alv61wq",48,NA,"<div style=""width:500px;"">
                                    <p style=""font-size:25px;"">Please move the slider halfway between the center and right endpoint of the scale</p>

                                    </div>
                                </div>",0.7675,"",0,"true",2,"true","","",NA,NA,NA,"","","","",NA,NA
"","","","","","html-button-response",15,128244,"0.0-10.1-1.1","y92alv61wq",48,735,"<p align='center'><b>Good job!</b> Click on 'Continue' to proceed.</p>",0.5,"",NA,"",NA,"","","",NA,NA,NA,"","","","",NA,NA
"","","","","","html-slider-response",16,131472,"0.0-11.0-0.0","y92alv61wq",48,NA,"<div style=""width:500px;"">
                                    <p style=""font-size:25px;"">Please move the slider halfway between the center and left endpoint of the scale</p>

                                    </div>
                                </div>",0.24,"",0,"true",3,"true","","",NA,NA,NA,"","","","",NA,NA
"","","","","","html-button-response",17,132761,"0.0-11.0-1.0","y92alv61wq",48,787,"<p align='center'><b>Good job!</b> Click on 'Continue' to proceed.</p>",0.5,"",NA,"",NA,"","","",NA,NA,NA,"","","","",NA,NA
"","","","","","html-button-response",18,133905,"0.0-12.0","y92alv61wq",48,1143,"<p>Great job! You've completed the practice trials. Now you will begin the main task.</p>",0.5,"",NA,"",NA,"","","",NA,NA,NA,"","","","",NA,NA
"","","","","","html-button-response",19,136477,"0.0-13.0","y92alv61wq",48,2572,"<p>In this block of trials, you will be asked to rate how much you associate each map with:</p > <p style = 'font-size:150%; font-weight: bold'>angry</p><br></br>",0.5,"",NA,"",NA,"","","",NA,NA,NA,"","","","",NA,NA
"","","","","","html-slider-response",20,139007,"0.0-14.0","y92alv61wq",48,NA,"<div style=""width:500px;"">
                            <p style=""font-size:50px; font-weight:bold;""
                            >angry</p>
                            <div style=""width:240px; margin: auto;"">
                                <img src=""images/map07_RdGy_scaleDef_orientMir_180.png"" style= ""width:200px""alt=""img"">
                            </div>
                        </div>",0.565,"",0,"",NA,"","images/map07_RdGy_scaleDef_orientMir_180.png","angry",1,7,7,"RdGy","orientMir","scaleDef","180",NA,NA
"","","","","","html-slider-response",21,141372,"0.0-15.0","y92alv61wq",48,NA,"<div style=""width:500px;"">
                            <p style=""font-size:50px; font-weight:bold;""
                            >angry</p>
                            <div style=""width:240px; margin: auto;"">
                                <img src=""images/map12_coolwarm_scaleDef_orientDef_000.png"" style= ""width:200px""alt=""img"">
                            </div>
                        </div>",0.4,"",0,"",NA,"","images/map12_coolwarm_scaleDef_orientDef_000.png","angry",1,12,12,"coolwarm","orientDef","scaleDef","000",NA,NA
"","","","","","html-slider-response",22,144157,"0.0-16.0","y92alv61wq",48,NA,"<div style=""width:500px;"">
                            <p style=""font-size:50px; font-weight:bold;""
                            >angry</p>
                            <div style=""width:240px; margin: auto;"">
                                <img src=""images/map12_coolwarm_scaleRev_orientDef_090.png"" style= ""width:200px""alt=""img"">
                            </div>
                        </div>",0.38,"",0,"",NA,"","images/map12_coolwarm_scaleRev_orientDef_090.png","angry",1,12,12,"coolwarm","orientDef","scaleRev","090",NA,NA
"","","","","","html-slider-response",23,148689,"0.0-17.0","y92alv61wq",48,NA,"<div style=""width:500px;"">
                            <p style=""font-size:50px; font-weight:bold;""
                            >angry</p>
                            <div style=""width:240px; margin: auto;"">
                                <img src=""images/map27_PuRd_scaleRev_orientMir_090.png"" style= ""width:200px""alt=""img"">
                            </div>
                        </div>",0.3425,"",0,"",NA,"","images/map27_PuRd_scaleRev_orientMir_090.png","angry",1,27,27,"PuRd","orientMir","scaleRev","090",NA,NA
"","","","","","html-slider-response",24,150955,"0.0-18.0","y92alv61wq",48,NA,"<div style=""width:500px;"">
                            <p style=""font-size:50px; font-weight:bold;""
                            >angry</p>
                            <div style=""width:240px; margin: auto;"">
                                <img src=""images/map10_RdBu_scaleDef_orientDef_000.png"" style= ""width:200px""alt=""img"">
                            </div>
                        </div>",0.7425,"",0,"",NA,"","images/map10_RdBu_scaleDef_orientDef_000.png","angry",1,10,10,"RdBu","orientDef","scaleDef","000",NA,NA
"","","","","","html-slider-response",25,153189,"0.0-19.0","y92alv61wq",48,NA,"<div style=""width:500px;"">
                            <p style=""font-size:50px; font-weight:bold;""
                            >angry</p>
                            <div style=""width:240px; margin: auto;"">
                                <img src=""images/map13_turbo_scaleRev_orientMir_270.png"" style= ""width:200px""alt=""img"">
                            </div>
                        </div>",0.8825,"",0,"",NA,"","images/map13_turbo_scaleRev_orientMir_270.png","angry",1,13,13,"turbo","orientMir","scaleRev","270",NA,NA
"","","","","","html-slider-response",26,155340,"0.0-20.0","y92alv61wq",48,NA,"<div style=""width:500px;"">
                            <p style=""font-size:50px; font-weight:bold;""
                            >angry</p>
                            <div style=""width:240px; margin: auto;"">
                                <img src=""images/map12_berlin_scaleRev_orientMir_270.png"" style= ""width:200px""alt=""img"">
                            </div>
                        </div>",0.9275,"",0,"",NA,"","images/map12_berlin_scaleRev_orientMir_270.png","angry",1,12,12,"berlin","orientMir","scaleRev","270",NA,NA
"","","","","","html-slider-response",27,157589,"0.0-21.0","y92alv61wq",48,NA,"<div style=""width:500px;"">
                            <p style=""font-size:50px; font-weight:bold;""
                            >angry</p>
                            <div style=""width:240px; margin: auto;"">
                                <img src=""images/map15_inferno_scaleRev_orientMir_090.png"" style= ""width:200px""alt=""img"">
                            </div>
                        </div>",0.875,"",0,"",NA,"","images/map15_inferno_scaleRev_orientMir_090.png","angry",1,15,15,"inferno","orientMir","scaleRev","090",NA,NA
"","","","","","html-slider-response",28,159722,"0.0-22.0","y92alv61wq",48,NA,"<div style=""width:500px;"">
                            <p style=""font-size:50px; font-weight:bold;""
                            >angry</p>
                            <div style=""width:240px; margin: auto;"">
                                <img src=""images/map12_berlin_scaleDef_orientMir_180.png"" style= ""width:200px""alt=""img"">
                            </div>
                        </div>",0.8325,"",0,"",NA,"","images/map12_berlin_scaleDef_orientMir_180.png","angry",1,12,12,"berlin","orientMir","scaleDef","180",NA,NA
"","","","","","html-slider-response",29,162790,"0.0-23.0","y92alv61wq",48,NA,"<div style=""width:500px;"">
                            <p style=""font-size:50px; font-weight:bold;""
                            >angry</p>
                            <div style=""width:240px; margin: auto;"">
                                <img src=""images/map07_PuOr_scaleRev_orientMir_090.png"" style= ""width:200px""alt=""img"">
                            </div>
                        </div>",0.355,"",0,"",NA,"","images/map07_PuOr_scaleRev_orientMir_090.png","angry",1,7,7,"PuOr","orientMir","scaleRev","090",NA,NA
"","","","","","html-slider-response",30,165040,"0.0-24.0","y92alv61wq",48,NA,"<div style=""width:500px;"">
                            <p style=""font-size:50px; font-weight:bold;""
                            >angry</p>
                            <div style=""width:240px; margin: auto;"">
                                <img src=""images/map15_viridis_scaleRev_orientDef_090.png"" style= ""width:200px""alt=""img"">
                            </div>
                        </div>",0.2325,"",0,"",NA,"","images/map15_viridis_scaleRev_orientDef_090.png","angry",1,15,15,"viridis","orientDef","scaleRev","090",NA,NA
"","","","","","html-slider-response",31,167705,"0.0-25.0","y92alv61wq",48,NA,"<div style=""width:500px;"">
                            <p style=""font-size:50px; font-weight:bold;""
                            >angry</p>
                            <div style=""width:240px; margin: auto;"">
                                <img src=""images/map05_PiYG_scaleDef_orientMir_180.png"" style= ""width:200px""alt=""img"">
                            </div>
                        </div>",0.1075,"",0,"",NA,"","images/map05_PiYG_scaleDef_orientMir_180.png","angry",1,5,5,"PiYG","orientMir","scaleDef","180",NA,NA
"","","","","","html-slider-response",32,169856,"0.0-26.0","y92alv61wq",48,NA,"<div style=""width:500px;"">
                            <p style=""font-size:50px; font-weight:bold;""
                            >angry</p>
                            <div style=""width:240px; margin: auto;"">
                                <img src=""images/map26_Greens_scaleRev_orientDef_090.png"" style= ""width:200px""alt=""img"">
                            </div>
                        </div>",0.6775,"",0,"",NA,"","images/map26_Greens_scaleRev_orientDef_090.png","angry",1,26,26,"Greens","orientDef","scaleRev","090",NA,NA
"","","","","","html-slider-response",33,171897,"0.0-27.0","y92alv61wq",48,NA,"<div style=""width:500px;"">
                            <p style=""font-size:50px; font-weight:bold;""
                            >angry</p>
                            <div style=""width:240px; margin: auto;"">
                                <img src=""images/map13_vanimo_scaleDef_orientDef_180.png"" style= ""width:200px""alt=""img"">
                            </div>
                        </div>",0.87,"",0,"",NA,"","images/map13_vanimo_scaleDef_orientDef_180.png","angry",1,13,13,"vanimo","orientDef","scaleDef","180",NA,NA
"","","","","","html-slider-response",34,174497,"0.0-28.0","y92alv61wq",48,NA,"<div style=""width:500px;"">
                            <p style=""font-size:50px; font-weight:bold;""
                            >angry</p>
                            <div style=""width:240px; margin: auto;"">
                                <img src=""images/map05_BuGn_scaleDef_orientDef_180.png"" style= ""width:200px""alt=""img"">
                            </div>
                        </div>",0.42,"",0,"",NA,"","images/map05_BuGn_scaleDef_orientDef_180.png","angry",1,5,5,"BuGn","orientDef","scaleDef","180",NA,NA
"","","","","","html-slider-response",35,176622,"0.0-29.0","y92alv61wq",48,NA,"<div style=""width:500px;"">
                            <p style=""font-size:50px; font-weight:bold;""
                            >angry</p>
                            <div style=""width:240px; margin: auto;"">
                                <img src=""images/map27_OrRd_scaleDef_orientDef_180.png"" style= ""width:200px""alt=""img"">
                            </div>
                        </div>",0.875,"",0,"",NA,"","images/map27_OrRd_scaleDef_orientDef_180.png","angry",1,27,27,"OrRd","orientDef","scaleDef","180",NA,NA
"","","","","","html-slider-response",36,178573,"0.0-30.0","y92alv61wq",48,NA,"<div style=""width:500px;"">
                            <p style=""font-size:50px; font-weight:bold;""
                            >angry</p>
                            <div style=""width:240px; margin: auto;"">
                                <img src=""images/map07_RdGy_scaleRev_orientMir_270.png"" style= ""width:200px""alt=""img"">
                            </div>
                        </div>",0.735,"",0,"",NA,"","images/map07_RdGy_scaleRev_orientMir_270.png","angry",1,7,7,"RdGy","orientMir","scaleRev","270",NA,NA
"","","","","","html-slider-response",37,180588,"0.0-31.0","y92alv61wq",48,NA,"<div style=""width:500px;"">
                            <p style=""font-size:50px; font-weight:bold;""
                            >angry</p>
                            <div style=""width:240px; margin: auto;"">
                                <img src=""images/map10_RdYlGn_scaleRev_orientMir_090.png"" style= ""width:200px""alt=""img"">
                            </div>
                        </div>",0.6675,"",0,"",NA,"","images/map10_RdYlGn_scaleRev_orientMir_090.png","angry",1,10,10,"RdYlGn","orientMir","scaleRev","090",NA,NA
"","","","","","html-slider-response",38,182739,"0.0-32.0","y92alv61wq",48,NA,"<div style=""width:500px;"">
                            <p style=""font-size:50px; font-weight:bold;""
                            >angry</p>
                            <div style=""width:240px; margin: auto;"">
                                <img src=""images/map07_PRGn_scaleRev_orientDef_090.png"" style= ""width:200px""alt=""img"">
                            </div>
                        </div>",0.415,"",0,"",NA,"","images/map07_PRGn_scaleRev_orientDef_090.png","angry",1,7,7,"PRGn","orientDef","scaleRev","090",NA,NA
"","","","","","html-slider-response",39,185972,"0.0-33.0","y92alv61wq",48,NA,"<div style=""width:500px;"">
                            <p style=""font-size:50px; font-weight:bold;""
                            >angry</p>
                            <div style=""width:240px; margin: auto;"">
                                <img src=""images/map13_turbo_scaleDef_orientMir_180.png"" style= ""width:200px""alt=""img"">
                            </div>
                        </div>",0.625,"",0,"",NA,"","images/map13_turbo_scaleDef_orientMir_180.png","angry",1,13,13,"turbo","orientMir","scaleDef","180",NA,NA
"","","","","","html-slider-response",40,187840,"0.0-34.0","y92alv61wq",48,NA,"<div style=""width:500px;"">
                            <p style=""font-size:50px; font-weight:bold;""
                            >angry</p>
                            <div style=""width:240px; margin: auto;"">
                                <img src=""images/map27_RdPu_scaleRev_orientMir_270.png"" style= ""width:200px""alt=""img"">
                            </div>
                        </div>",0.8325,"",0,"",NA,"","images/map27_RdPu_scaleRev_orientMir_270.png","angry",1,27,27,"RdPu","orientMir","scaleRev","270",NA,NA
"","","","","","html-slider-response",41,189972,"0.0-35.0","y92alv61wq",48,NA,"<div style=""width:500px;"">
                            <p style=""font-size:50px; font-weight:bold;""
                            >angry</p>
                            <div style=""width:240px; margin: auto;"">
                                <img src=""images/map27_YlOrRd_scaleRev_orientDef_090.png"" style= ""width:200px""alt=""img"">
                            </div>
                        </div>",0.6625,"",0,"",NA,"","images/map27_YlOrRd_scaleRev_orientDef_090.png","angry",1,27,27,"YlOrRd","orientDef","scaleRev","090",NA,NA
"","","","","","html-slider-response",42,191908,"0.0-36.0","y92alv61wq",48,NA,"<div style=""width:500px;"">
                            <p style=""font-size:50px; font-weight:bold;""
                            >angry</p>
                            <div style=""width:240px; margin: auto;"">
                                <img src=""images/map02_YlGnBu_scaleRev_orientMir_270.png"" style= ""width:200px""alt=""img"">
                            </div>
                        </div>",0.3375,"",0,"",NA,"","images/map02_YlGnBu_scaleRev_orientMir_270.png","angry",1,2,2,"YlGnBu","orientMir","scaleRev","270",NA,NA
"","","","","","html-slider-response",43,193721,"0.0-37.0","y92alv61wq",48,NA,"<div style=""width:500px;"">
                            <p style=""font-size:50px; font-weight:bold;""
                            >angry</p>
                            <div style=""width:240px; margin: auto;"">
                                <img src=""images/map26_Reds_scaleDef_orientMir_000.png"" style= ""width:200px""alt=""img"">
                            </div>
                        </div>",0.785,"",0,"",NA,"","images/map26_Reds_scaleDef_orientMir_000.png","angry",1,26,26,"Reds","orientMir","scaleDef","000",NA,NA
"","","","","","html-slider-response",44,195722,"0.0-38.0","y92alv61wq",48,NA,"<div style=""width:500px;"">
                            <p style=""font-size:50px; font-weight:bold;""
                            >angry</p>
                            <div style=""width:240px; margin: auto;"">
                                <img src=""images/map15_magma_scaleRev_orientMir_270.png"" style= ""width:200px""alt=""img"">
                            </div>
                        </div>",0.89,"",0,"",NA,"","images/map15_magma_scaleRev_orientMir_270.png","angry",1,15,15,"magma","orientMir","scaleRev","270",NA,NA
"","","","","","html-slider-response",45,197788,"0.0-39.0","y92alv61wq",48,NA,"<div style=""width:500px;"">
                            <p style=""font-size:50px; font-weight:bold;""
                            >angry</p>
                            <div style=""width:240px; margin: auto;"">
                                <img src=""images/map07_BrBG_scaleRev_orientDef_270.png"" style= ""width:200px""alt=""img"">
                            </div>
                        </div>",0.2925,"",0,"",NA,"","images/map07_BrBG_scaleRev_orientDef_270.png","angry",1,7,7,"BrBG","orientDef","scaleRev","270",NA,NA
"","","","","","html-slider-response",46,199506,"0.0-40.0","y92alv61wq",48,NA,"<div style=""width:500px;"">
                            <p style=""font-size:50px; font-weight:bold;""
                            >angry</p>
                            <div style=""width:240px; margin: auto;"">
                                <img src=""images/map10_Spectral_scaleRev_orientMir_270.png"" style= ""width:200px""alt=""img"">
                            </div>
                        </div>",0.815,"",0,"",NA,"","images/map10_Spectral_scaleRev_orientMir_270.png","angry",1,10,10,"Spectral","orientMir","scaleRev","270",NA,NA
"","","","","","html-slider-response",47,201522,"0.0-41.0","y92alv61wq",48,NA,"<div style=""width:500px;"">
                            <p style=""font-size:50px; font-weight:bold;""
                            >angry</p>
                            <div style=""width:240px; margin: auto;"">
                                <img src=""images/map10_Spectral_scaleDef_orientMir_180.png"" style= ""width:200px""alt=""img"">
                            </div>
                        </div>",0.7075,"",0,"",NA,"","images/map10_Spectral_scaleDef_orientMir_180.png","angry",1,10,10,"Spectral","orientMir","scaleDef","180",NA,NA
"","","","","","html-slider-response",48,203756,"0.0-42.0","y92alv61wq",48,NA,"<div style=""width:500px;"">
                            <p style=""font-size:50px; font-weight:bold;""
                            >angry</p>
                            <div style=""width:240px; margin: auto;"">
                                <img src=""images/map10_RdYlBu_scaleRev_orientDef_270.png"" style= ""width:200px""alt=""img"">
                            </div>
                        </div>",0.585,"",0,"",NA,"","images/map10_RdYlBu_scaleRev_orientDef_270.png","angry",1,10,10,"RdYlBu","orientDef","scaleRev","270",NA,NA
"","","","","","html-slider-response",49,205654,"0.0-43.0","y92alv61wq",48,NA,"<div style=""width:500px;"">
                            <p style=""font-size:50px; font-weight:bold;""
                            >angry</p>
                            <div style=""width:240px; margin: auto;"">
                                <img src=""images/map23_Blues_scaleDef_orientMir_180.png"" style= ""width:200px""alt=""img"">
                            </div>
                        </div>",0.325,"",0,"",NA,"","images/map23_Blues_scaleDef_orientMir_180.png","angry",1,23,23,"Blues","orientMir","scaleDef","180",NA,NA
"","","","","","html-slider-response",50,207653,"0.0-44.0","y92alv61wq",48,NA,"<div style=""width:500px;"">
                            <p style=""font-size:50px; font-weight:bold;""
                            >angry</p>
                            <div style=""width:240px; margin: auto;"">
                                <img src=""images/map26_Oranges_scaleDef_orientDef_180.png"" style= ""width:200px""alt=""img"">
                            </div>
                        </div>",0.755,"",0,"",NA,"","images/map26_Oranges_scaleDef_orientDef_180.png","angry",1,26,26,"Oranges","orientDef","scaleDef","180",NA,NA
"","","","","","html-slider-response",51,209367,"0.0-45.0","y92alv61wq",48,NA,"<div style=""width:500px;"">
                            <p style=""font-size:50px; font-weight:bold;""
                            >angry</p>
                            <div style=""width:240px; margin: auto;"">
                                <img src=""images/map05_YlGn_scaleRev_orientMir_090.png"" style= ""width:200px""alt=""img"">
                            </div>
                        </div>",0.36,"",0,"",NA,"","images/map05_YlGn_scaleRev_orientMir_090.png","angry",1,5,5,"YlGn","orientMir","scaleRev","090",NA,NA
"","","","","","html-slider-response",52,211532,"0.0-46.0","y92alv61wq",48,NA,"<div style=""width:500px;"">
                            <p style=""font-size:50px; font-weight:bold;""
                            >angry</p>
                            <div style=""width:240px; margin: auto;"">
                                <img src=""images/map12_seismic_scaleDef_orientMir_000.png"" style= ""width:200px""alt=""img"">
                            </div>
                        </div>",0.97,"",0,"",NA,"","images/map12_seismic_scaleDef_orientMir_000.png","angry",1,12,12,"seismic","orientMir","scaleDef","000",NA,NA
"","","","","","html-slider-response",53,213217,"0.0-47.0","y92alv61wq",48,NA,"<div style=""width:500px;"">
                            <p style=""font-size:50px; font-weight:bold;""
                            >angry</p>
                            <div style=""width:240px; margin: auto;"">
                                <img src=""images/map23_Blues_scaleRev_orientMir_270.png"" style= ""width:200px""alt=""img"">
                            </div>
                        </div>",0.275,"",0,"",NA,"","images/map23_Blues_scaleRev_orientMir_270.png","angry",1,23,23,"Blues","orientMir","scaleRev","270",NA,NA
"","","","","","html-slider-response",54,214916,"0.0-48.0","y92alv61wq",48,NA,"<div style=""width:500px;"">
                            <p style=""font-size:50px; font-weight:bold;""
                            >angry</p>
                            <div style=""width:240px; margin: auto;"">
                                <img src=""images/map15_plasma_scaleRev_orientDef_270.png"" style= ""width:200px""alt=""img"">
                            </div>
                        </div>",0.655,"",0,"",NA,"","images/map15_plasma_scaleRev_orientDef_270.png","angry",1,15,15,"plasma","orientDef","scaleRev","270",NA,NA
"","","","","","html-slider-response",55,216763,"0.0-49.0","y92alv61wq",48,NA,"<div style=""width:500px;"">
                            <p style=""font-size:50px; font-weight:bold;""
                            >angry</p>
                            <div style=""width:240px; margin: auto;"">
                                <img src=""images/map02_PuBu_scaleRev_orientMir_090.png"" style= ""width:200px""alt=""img"">
                            </div>
                        </div>",0.2675,"",0,"",NA,"","images/map02_PuBu_scaleRev_orientMir_090.png","angry",1,2,2,"PuBu","orientMir","scaleRev","090",NA,NA
"","","","","","html-slider-response",56,218897,"0.0-50.0","y92alv61wq",48,NA,"<div style=""width:500px;"">
                            <p style=""font-size:50px; font-weight:bold;""
                            >angry</p>
                            <div style=""width:240px; margin: auto;"">
                                <img src=""images/map12_seismic_scaleRev_orientMir_090.png"" style= ""width:200px""alt=""img"">
                            </div>
                        </div>",0.6475,"",0,"",NA,"","images/map12_seismic_scaleRev_orientMir_090.png","angry",1,12,12,"seismic","orientMir","scaleRev","090",NA,NA
"","","","","","html-slider-response",57,220846,"0.0-51.0","y92alv61wq",48,NA,"<div style=""width:500px;"">
                            <p style=""font-size:50px; font-weight:bold;""
                            >angry</p>
                            <div style=""width:240px; margin: auto;"">
                                <img src=""images/map15_magma_scaleDef_orientMir_180.png"" style= ""width:200px""alt=""img"">
                            </div>
                        </div>",0.73,"",0,"",NA,"","images/map15_magma_scaleDef_orientMir_180.png","angry",1,15,15,"magma","orientMir","scaleDef","180",NA,NA
"","","","","","html-slider-response",58,223163,"0.0-52.0","y92alv61wq",48,NA,"<div style=""width:500px;"">
                            <p style=""font-size:50px; font-weight:bold;""
                            >angry</p>
                            <div style=""width:240px; margin: auto;"">
                                <img src=""images/map05_PiYG_scaleRev_orientMir_270.png"" style= ""width:200px""alt=""img"">
                            </div>
                        </div>",0.0775,"",0,"",NA,"","images/map05_PiYG_scaleRev_orientMir_270.png","angry",1,5,5,"PiYG","orientMir","scaleRev","270",NA,NA
"","","","","","html-slider-response",59,225263,"0.0-53.0","y92alv61wq",48,NA,"<div style=""width:500px;"">
                            <p style=""font-size:50px; font-weight:bold;""
                            >angry</p>
                            <div style=""width:240px; margin: auto;"">
                                <img src=""images/map02_PuBu_scaleDef_orientMir_000.png"" style= ""width:200px""alt=""img"">
                            </div>
                        </div>",0.3025,"",0,"",NA,"","images/map02_PuBu_scaleDef_orientMir_000.png","angry",1,2,2,"PuBu","orientMir","scaleDef","000",NA,NA
"","","","","","html-button-response",60,619845,"0.0-54.0","y92alv61wq",48,394086,"<p>You are doing great!<br></br> You are halway done with the current block. When you are ready to continue, click the 'Continue' button.</p>",0.5,"",NA,"",NA,"","","",NA,NA,NA,"","","","",NA,NA
"","","","","","html-slider-response",61,622357,"0.0-55.0","y92alv61wq",48,NA,"<div style=""width:500px;"">
                            <p style=""font-size:50px; font-weight:bold;""
                            >angry</p>
                            <div style=""width:240px; margin: auto;"">
                                <img src=""images/map23_cividis_scaleDef_orientDef_000.png"" style= ""width:200px""alt=""img"">
                            </div>
                        </div>",0.3425,"",0,"",NA,"","images/map23_cividis_scaleDef_orientDef_000.png","angry",1,23,23,"cividis","orientDef","scaleDef","000",NA,NA
"","","","","","html-slider-response",62,625103,"0.0-56.0","y92alv61wq",48,NA,"<div style=""width:500px;"">
                            <p style=""font-size:50px; font-weight:bold;""
                            >angry</p>
                            <div style=""width:240px; margin: auto;"">
                                <img src=""images/map05_YlGn_scaleDef_orientMir_000.png"" style= ""width:200px""alt=""img"">
                            </div>
                        </div>",0.285,"",0,"",NA,"","images/map05_YlGn_scaleDef_orientMir_000.png","angry",1,5,5,"YlGn","orientMir","scaleDef","000",NA,NA
"","","","","","html-slider-response",63,628072,"0.0-57.0","y92alv61wq",48,NA,"<div style=""width:500px;"">
                            <p style=""font-size:50px; font-weight:bold;""
                            >angry</p>
                            <div style=""width:240px; margin: auto;"">
                                <img src=""images/map27_RdPu_scaleDef_orientMir_180.png"" style= ""width:200px""alt=""img"">
                            </div>
                        </div>",0.2625,"",0,"",NA,"","images/map27_RdPu_scaleDef_orientMir_180.png","angry",1,27,27,"RdPu","orientMir","scaleDef","180",NA,NA
"","","","","","html-slider-response",64,631239,"0.0-58.0","y92alv61wq",48,NA,"<div style=""width:500px;"">
                            <p style=""font-size:50px; font-weight:bold;""
                            >angry</p>
                            <div style=""width:240px; margin: auto;"">
                                <img src=""images/map23_cividis_scaleRev_orientDef_090.png"" style= ""width:200px""alt=""img"">
                            </div>
                        </div>",0.5375,"",0,"",NA,"","images/map23_cividis_scaleRev_orientDef_090.png","angry",1,23,23,"cividis","orientDef","scaleRev","090",NA,NA
"","","","","","html-slider-response",65,634257,"0.0-59.0","y92alv61wq",48,NA,"<div style=""width:500px;"">
                            <p style=""font-size:50px; font-weight:bold;""
                            >angry</p>
                            <div style=""width:240px; margin: auto;"">
                                <img src=""images/map10_RdYlGn_scaleDef_orientMir_000.png"" style= ""width:200px""alt=""img"">
                            </div>
                        </div>",0.715,"",0,"",NA,"","images/map10_RdYlGn_scaleDef_orientMir_000.png","angry",1,10,10,"RdYlGn","orientMir","scaleDef","000",NA,NA
"","","","","","html-slider-response",66,636406,"0.0-60.0","y92alv61wq",48,NA,"<div style=""width:500px;"">
                            <p style=""font-size:50px; font-weight:bold;""
                            >angry</p>
                            <div style=""width:240px; margin: auto;"">
                                <img src=""images/map13_gist_earth_scaleRev_orientMir_090.png"" style= ""width:200px""alt=""img"">
                            </div>
                        </div>",0.635,"",0,"",NA,"","images/map13_gist_earth_scaleRev_orientMir_090.png","angry",1,13,13,"gist","scaleRev","earth","orientMir",NA,NA
"","","","","","html-slider-response",67,638557,"0.0-61.0","y92alv61wq",48,NA,"<div style=""width:500px;"">
                            <p style=""font-size:50px; font-weight:bold;""
                            >angry</p>
                            <div style=""width:240px; margin: auto;"">
                                <img src=""images/map12_bwr_scaleDef_orientDef_180.png"" style= ""width:200px""alt=""img"">
                            </div>
                        </div>",0.675,"",0,"",NA,"","images/map12_bwr_scaleDef_orientDef_180.png","angry",1,12,12,"bwr","orientDef","scaleDef","180",NA,NA
"","","","","","html-slider-response",68,642057,"0.0-62.0","y92alv61wq",48,NA,"<div style=""width:500px;"">
                            <p style=""font-size:50px; font-weight:bold;""
                            >angry</p>
                            <div style=""width:240px; margin: auto;"">
                                <img src=""images/map23_Greys_scaleDef_orientDef_180.png"" style= ""width:200px""alt=""img"">
                            </div>
                        </div>",0.775,"",0,"",NA,"","images/map23_Greys_scaleDef_orientDef_180.png","angry",1,23,23,"Greys","orientDef","scaleDef","180",NA,NA
"","","","","","html-slider-response",69,644405,"0.0-63.0","y92alv61wq",48,NA,"<div style=""width:500px;"">
                            <p style=""font-size:50px; font-weight:bold;""
                            >angry</p>
                            <div style=""width:240px; margin: auto;"">
                                <img src=""images/map15_viridis_scaleDef_orientDef_000.png"" style= ""width:200px""alt=""img"">
                            </div>
                        </div>",0.335,"",0,"",NA,"","images/map15_viridis_scaleDef_orientDef_000.png","angry",1,15,15,"viridis","orientDef","scaleDef","000",NA,NA
"","","","","","html-slider-response",70,646971,"0.0-64.0","y92alv61wq",48,NA,"<div style=""width:500px;"">
                            <p style=""font-size:50px; font-weight:bold;""
                            >angry</p>
                            <div style=""width:240px; margin: auto;"">
                                <img src=""images/map05_PuBuGn_scaleRev_orientDef_090.png"" style= ""width:200px""alt=""img"">
                            </div>
                        </div>",0.6775,"",0,"",NA,"","images/map05_PuBuGn_scaleRev_orientDef_090.png","angry",1,5,5,"PuBuGn","orientDef","scaleRev","090",NA,NA
"","","","","","html-slider-response",71,650005,"0.0-65.0","y92alv61wq",48,NA,"<div style=""width:500px;"">
                            <p style=""font-size:50px; font-weight:bold;""
                            >angry</p>
                            <div style=""width:240px; margin: auto;"">
                                <img src=""images/map27_OrRd_scaleRev_orientDef_270.png"" style= ""width:200px""alt=""img"">
                            </div>
                        </div>",0.3275,"",0,"",NA,"","images/map27_OrRd_scaleRev_orientDef_270.png","angry",1,27,27,"OrRd","orientDef","scaleRev","270",NA,NA
"","","","","","html-slider-response",72,652488,"0.0-66.0","y92alv61wq",48,NA,"<div style=""width:500px;"">
                            <p style=""font-size:50px; font-weight:bold;""
                            >angry</p>
                            <div style=""width:240px; margin: auto;"">
                                <img src=""images/map07_PRGn_scaleDef_orientDef_000.png"" style= ""width:200px""alt=""img"">
                            </div>
                        </div>",0.3875,"",0,"",NA,"","images/map07_PRGn_scaleDef_orientDef_000.png","angry",1,7,7,"PRGn","orientDef","scaleDef","000",NA,NA
"","","","","","html-slider-response",73,655523,"0.0-67.0","y92alv61wq",48,NA,"<div style=""width:500px;"">
                            <p style=""font-size:50px; font-weight:bold;""
                            >angry</p>
                            <div style=""width:240px; margin: auto;"">
                                <img src=""images/map15_plasma_scaleDef_orientDef_180.png"" style= ""width:200px""alt=""img"">
                            </div>
                        </div>",0.7975,"",0,"",NA,"","images/map15_plasma_scaleDef_orientDef_180.png","angry",1,15,15,"plasma","orientDef","scaleDef","180",NA,NA
"","","","","","html-slider-response",74,657424,"0.0-68.0","y92alv61wq",48,NA,"<div style=""width:500px;"">
                            <p style=""font-size:50px; font-weight:bold;""
                            >angry</p>
                            <div style=""width:240px; margin: auto;"">
                                <img src=""images/map07_BrBG_scaleDef_orientDef_180.png"" style= ""width:200px""alt=""img"">
                            </div>
                        </div>",0.31,"",0,"",NA,"","images/map07_BrBG_scaleDef_orientDef_180.png","angry",1,7,7,"BrBG","orientDef","scaleDef","180",NA,NA
"","","","","","html-slider-response",75,659357,"0.0-69.0","y92alv61wq",48,NA,"<div style=""width:500px;"">
                            <p style=""font-size:50px; font-weight:bold;""
                            >angry</p>
                            <div style=""width:240px; margin: auto;"">
                                <img src=""images/map27_YlOrRd_scaleDef_orientDef_000.png"" style= ""width:200px""alt=""img"">
                            </div>
                        </div>",0.655,"",0,"",NA,"","images/map27_YlOrRd_scaleDef_orientDef_000.png","angry",1,27,27,"YlOrRd","orientDef","scaleDef","000",NA,NA
"","","","","","html-slider-response",76,661481,"0.0-70.0","y92alv61wq",48,NA,"<div style=""width:500px;"">
                            <p style=""font-size:50px; font-weight:bold;""
                            >angry</p>
                            <div style=""width:240px; margin: auto;"">
                                <img src=""images/map13_managua_scaleRev_orientDef_090.png"" style= ""width:200px""alt=""img"">
                            </div>
                        </div>",0.27,"",0,"",NA,"","images/map13_managua_scaleRev_orientDef_090.png","angry",1,13,13,"managua","orientDef","scaleRev","090",NA,NA
"","","","","","html-slider-response",77,663657,"0.0-71.0","y92alv61wq",48,NA,"<div style=""width:500px;"">
                            <p style=""font-size:50px; font-weight:bold;""
                            >angry</p>
                            <div style=""width:240px; margin: auto;"">
                                <img src=""images/map26_YlOrBr_scaleDef_orientMir_180.png"" style= ""width:200px""alt=""img"">
                            </div>
                        </div>",0.4025,"",0,"",NA,"","images/map26_YlOrBr_scaleDef_orientMir_180.png","angry",1,26,26,"YlOrBr","orientMir","scaleDef","180",NA,NA
"","","","","","html-slider-response",78,666772,"0.0-72.0","y92alv61wq",48,NA,"<div style=""width:500px;"">
                            <p style=""font-size:50px; font-weight:bold;""
                            >angry</p>
                            <div style=""width:240px; margin: auto;"">
                                <img src=""images/map05_PuBuGn_scaleDef_orientDef_000.png"" style= ""width:200px""alt=""img"">
                            </div>
                        </div>",0.425,"",0,"",NA,"","images/map05_PuBuGn_scaleDef_orientDef_000.png","angry",1,5,5,"PuBuGn","orientDef","scaleDef","000",NA,NA
"","","","","","html-slider-response",79,668623,"0.0-73.0","y92alv61wq",48,NA,"<div style=""width:500px;"">
                            <p style=""font-size:50px; font-weight:bold;""
                            >angry</p>
                            <div style=""width:240px; margin: auto;"">
                                <img src=""images/map10_RdBu_scaleRev_orientDef_090.png"" style= ""width:200px""alt=""img"">
                            </div>
                        </div>",0.6975,"",0,"",NA,"","images/map10_RdBu_scaleRev_orientDef_090.png","angry",1,10,10,"RdBu","orientDef","scaleRev","090",NA,NA
"","","","","","html-slider-response",80,671105,"0.0-74.0","y92alv61wq",48,NA,"<div style=""width:500px;"">
                            <p style=""font-size:50px; font-weight:bold;""
                            >angry</p>
                            <div style=""width:240px; margin: auto;"">
                                <img src=""images/map26_Greens_scaleDef_orientDef_000.png"" style= ""width:200px""alt=""img"">
                            </div>
                        </div>",0.4025,"",0,"",NA,"","images/map26_Greens_scaleDef_orientDef_000.png","angry",1,26,26,"Greens","orientDef","scaleDef","000",NA,NA
"","","","","","html-slider-response",81,673355,"0.0-75.0","y92alv61wq",48,NA,"<div style=""width:500px;"">
                            <p style=""font-size:50px; font-weight:bold;""
                            >angry</p>
                            <div style=""width:240px; margin: auto;"">
                                <img src=""images/map02_GnBu_scaleDef_orientDef_180.png"" style= ""width:200px""alt=""img"">
                            </div>
                        </div>",0.205,"",0,"",NA,"","images/map02_GnBu_scaleDef_orientDef_180.png","angry",1,2,2,"GnBu","orientDef","scaleDef","180",NA,NA
"","","","","","html-slider-response",82,675840,"0.0-76.0","y92alv61wq",48,NA,"<div style=""width:500px;"">
                            <p style=""font-size:50px; font-weight:bold;""
                            >angry</p>
                            <div style=""width:240px; margin: auto;"">
                                <img src=""images/map26_Reds_scaleRev_orientMir_090.png"" style= ""width:200px""alt=""img"">
                            </div>
                        </div>",0.9425,"",0,"",NA,"","images/map26_Reds_scaleRev_orientMir_090.png","angry",1,26,26,"Reds","orientMir","scaleRev","090",NA,NA
"","","","","","html-slider-response",83,678206,"0.0-77.0","y92alv61wq",48,NA,"<div style=""width:500px;"">
                            <p style=""font-size:50px; font-weight:bold;""
                            >angry</p>
                            <div style=""width:240px; margin: auto;"">
                                <img src=""images/map13_vanimo_scaleRev_orientDef_270.png"" style= ""width:200px""alt=""img"">
                            </div>
                        </div>",0.8925,"",0,"",NA,"","images/map13_vanimo_scaleRev_orientDef_270.png","angry",1,13,13,"vanimo","orientDef","scaleRev","270",NA,NA
"","","","","","html-slider-response",84,682756,"0.0-78.0","y92alv61wq",48,NA,"<div style=""width:500px;"">
                            <p style=""font-size:50px; font-weight:bold;""
                            >angry</p>
                            <div style=""width:240px; margin: auto;"">
                                <img src=""images/map23_Purples_scaleDef_orientMir_000.png"" style= ""width:200px""alt=""img"">
                            </div>
                        </div>",0.545,"",0,"",NA,"","images/map23_Purples_scaleDef_orientMir_000.png","angry",1,23,23,"Purples","orientMir","scaleDef","000",NA,NA
"","","","","","html-slider-response",85,685388,"0.0-79.0","y92alv61wq",48,NA,"<div style=""width:500px;"">
                            <p style=""font-size:50px; font-weight:bold;""
                            >angry</p>
                            <div style=""width:240px; margin: auto;"">
                                <img src=""images/map12_bwr_scaleRev_orientDef_270.png"" style= ""width:200px""alt=""img"">
                            </div>
                        </div>",0.635,"",0,"",NA,"","images/map12_bwr_scaleRev_orientDef_270.png","angry",1,12,12,"bwr","orientDef","scaleRev","270",NA,NA
"","","","","","html-slider-response",86,687655,"0.0-80.0","y92alv61wq",48,NA,"<div style=""width:500px;"">
                            <p style=""font-size:50px; font-weight:bold;""
                            >angry</p>
                            <div style=""width:240px; margin: auto;"">
                                <img src=""images/map05_BuGn_scaleRev_orientDef_270.png"" style= ""width:200px""alt=""img"">
                            </div>
                        </div>",0.535,"",0,"",NA,"","images/map05_BuGn_scaleRev_orientDef_270.png","angry",1,5,5,"BuGn","orientDef","scaleRev","270",NA,NA
"","","","","","html-slider-response",87,690689,"0.0-81.0","y92alv61wq",48,NA,"<div style=""width:500px;"">
                            <p style=""font-size:50px; font-weight:bold;""
                            >angry</p>
                            <div style=""width:240px; margin: auto;"">
                                <img src=""images/map27_PuRd_scaleDef_orientMir_000.png"" style= ""width:200px""alt=""img"">
                            </div>
                        </div>",0.575,"",0,"",NA,"","images/map27_PuRd_scaleDef_orientMir_000.png","angry",1,27,27,"PuRd","orientMir","scaleDef","000",NA,NA
"","","","","","html-slider-response",88,693023,"0.0-82.0","y92alv61wq",48,NA,"<div style=""width:500px;"">
                            <p style=""font-size:50px; font-weight:bold;""
                            >angry</p>
                            <div style=""width:240px; margin: auto;"">
                                <img src=""images/map02_GnBu_scaleRev_orientDef_270.png"" style= ""width:200px""alt=""img"">
                            </div>
                        </div>",0.205,"",0,"",NA,"","images/map02_GnBu_scaleRev_orientDef_270.png","angry",1,2,2,"GnBu","orientDef","scaleRev","270",NA,NA
"","","","","","html-slider-response",89,695208,"0.0-83.0","y92alv61wq",48,NA,"<div style=""width:500px;"">
                            <p style=""font-size:50px; font-weight:bold;""
                            >angry</p>
                            <div style=""width:240px; margin: auto;"">
                                <img src=""images/map26_Oranges_scaleRev_orientDef_270.png"" style= ""width:200px""alt=""img"">
                            </div>
                        </div>",0.69,"",0,"",NA,"","images/map26_Oranges_scaleRev_orientDef_270.png","angry",1,26,26,"Oranges","orientDef","scaleRev","270",NA,NA
"","","","","","html-slider-response",90,697346,"0.0-84.0","y92alv61wq",48,NA,"<div style=""width:500px;"">
                            <p style=""font-size:50px; font-weight:bold;""
                            >angry</p>
                            <div style=""width:240px; margin: auto;"">
                                <img src=""images/map23_Greys_scaleRev_orientDef_270.png"" style= ""width:200px""alt=""img"">
                            </div>
                        </div>",0.805,"",0,"",NA,"","images/map23_Greys_scaleRev_orientDef_270.png","angry",1,23,23,"Greys","orientDef","scaleRev","270",NA,NA
"","","","","","html-slider-response",91,699288,"0.0-85.0","y92alv61wq",48,NA,"<div style=""width:500px;"">
                            <p style=""font-size:50px; font-weight:bold;""
                            >angry</p>
                            <div style=""width:240px; margin: auto;"">
                                <img src=""images/map23_Purples_scaleRev_orientMir_090.png"" style= ""width:200px""alt=""img"">
                            </div>
                        </div>",0.535,"",0,"",NA,"","images/map23_Purples_scaleRev_orientMir_090.png","angry",1,23,23,"Purples","orientMir","scaleRev","090",NA,NA
"","","","","","html-slider-response",92,701438,"0.0-86.0","y92alv61wq",48,NA,"<div style=""width:500px;"">
                            <p style=""font-size:50px; font-weight:bold;""
                            >angry</p>
                            <div style=""width:240px; margin: auto;"">
                                <img src=""images/map13_managua_scaleDef_orientDef_000.png"" style= ""width:200px""alt=""img"">
                            </div>
                        </div>",0.555,"",0,"",NA,"","images/map13_managua_scaleDef_orientDef_000.png","angry",1,13,13,"managua","orientDef","scaleDef","000",NA,NA
"","","","","","html-slider-response",93,703457,"0.0-87.0","y92alv61wq",48,NA,"<div style=""width:500px;"">
                            <p style=""font-size:50px; font-weight:bold;""
                            >angry</p>
                            <div style=""width:240px; margin: auto;"">
                                <img src=""images/map13_gist_earth_scaleDef_orientMir_000.png"" style= ""width:200px""alt=""img"">
                            </div>
                        </div>",0.6675,"",0,"",NA,"","images/map13_gist_earth_scaleDef_orientMir_000.png","angry",1,13,13,"gist","scaleDef","earth","orientMir",NA,NA
"","","","","","html-slider-response",94,705440,"0.0-88.0","y92alv61wq",48,NA,"<div style=""width:500px;"">
                            <p style=""font-size:50px; font-weight:bold;""
                            >angry</p>
                            <div style=""width:240px; margin: auto;"">
                                <img src=""images/map07_PuOr_scaleDef_orientMir_000.png"" style= ""width:200px""alt=""img"">
                            </div>
                        </div>",0.2425,"",0,"",NA,"","images/map07_PuOr_scaleDef_orientMir_000.png","angry",1,7,7,"PuOr","orientMir","scaleDef","000",NA,NA
"","","","","","html-slider-response",95,707230,"0.0-89.0","y92alv61wq",48,NA,"<div style=""width:500px;"">
                            <p style=""font-size:50px; font-weight:bold;""
                            >angry</p>
                            <div style=""width:240px; margin: auto;"">
                                <img src=""images/map15_inferno_scaleDef_orientMir_000.png"" style= ""width:200px""alt=""img"">
                            </div>
                        </div>",0.7825,"",0,"",NA,"","images/map15_inferno_scaleDef_orientMir_000.png","angry",1,15,15,"inferno","orientMir","scaleDef","000",NA,NA
"","","","","","html-slider-response",96,710956,"0.0-90.0","y92alv61wq",48,NA,"<div style=""width:500px;"">
                            <p style=""font-size:50px; font-weight:bold;""
                            >angry</p>
                            <div style=""width:240px; margin: auto;"">
                                <img src=""images/map10_RdYlBu_scaleDef_orientDef_180.png"" style= ""width:200px""alt=""img"">
                            </div>
                        </div>",0.485,"",0,"",NA,"","images/map10_RdYlBu_scaleDef_orientDef_180.png","angry",1,10,10,"RdYlBu","orientDef","scaleDef","180",NA,NA
"","","","","","html-slider-response",97,714472,"0.0-91.0","y92alv61wq",48,NA,"<div style=""width:500px;"">
                            <p style=""font-size:50px; font-weight:bold;""
                            >angry</p>
                            <div style=""width:240px; margin: auto;"">
                                <img src=""images/map02_BuPu_scaleDef_orientDef_000.png"" style= ""width:200px""alt=""img"">
                            </div>
                        </div>",0.475,"",0,"",NA,"","images/map02_BuPu_scaleDef_orientDef_000.png","angry",1,2,2,"BuPu","orientDef","scaleDef","000",NA,NA
"","","","","","html-slider-response",98,716273,"0.0-92.0","y92alv61wq",48,NA,"<div style=""width:500px;"">
                            <p style=""font-size:50px; font-weight:bold;""
                            >angry</p>
                            <div style=""width:240px; margin: auto;"">
                                <img src=""images/map02_BuPu_scaleRev_orientDef_090.png"" style= ""width:200px""alt=""img"">
                            </div>
                        </div>",0.46,"",0,"",NA,"","images/map02_BuPu_scaleRev_orientDef_090.png","angry",1,2,2,"BuPu","orientDef","scaleRev","090",NA,NA
"","","","","","html-slider-response",99,719307,"0.0-93.0","y92alv61wq",48,NA,"<div style=""width:500px;"">
                            <p style=""font-size:50px; font-weight:bold;""
                            >angry</p>
                            <div style=""width:240px; margin: auto;"">
                                <img src=""images/map02_YlGnBu_scaleDef_orientMir_180.png"" style= ""width:200px""alt=""img"">
                            </div>
                        </div>",0.305,"",0,"",NA,"","images/map02_YlGnBu_scaleDef_orientMir_180.png","angry",1,2,2,"YlGnBu","orientMir","scaleDef","180",NA,NA
"","","","","","html-slider-response",100,723347,"0.0-94.0","y92alv61wq",48,NA,"<div style=""width:500px;"">
                            <p style=""font-size:50px; font-weight:bold;""
                            >angry</p>
                            <div style=""width:240px; margin: auto;"">
                                <img src=""images/map26_YlOrBr_scaleRev_orientMir_270.png"" style= ""width:200px""alt=""img"">
                            </div>
                        </div>",0.745,"",0,"",NA,"","images/map26_YlOrBr_scaleRev_orientMir_270.png","angry",1,26,26,"YlOrBr","orientMir","scaleRev","270",NA,NA
"","","","","","html-button-response",101,773093,"0.0-95.0","y92alv61wq",48,49244,"<p>Great Job! You've finished block 1.<br></br> You have 4 block(s) left to go.<br></br></p>",0.5,"",NA,"",NA,"","","",NA,NA,NA,"","","","",NA,NA
"","","","","","html-button-response",102,774210,"0.0-96.0","y92alv61wq",48,1116,"<p>In this block of trials, you will be asked to rate how much you associate each map with:</p > <p style = 'font-size:150%; font-weight: bold'>happy</p><br></br>",0.5,"",NA,"",NA,"","","",NA,NA,NA,"","","","",NA,NA
"","","","","","html-slider-response",103,777888,"0.0-97.0","y92alv61wq",48,NA,"<div style=""width:500px;"">
                            <p style=""font-size:50px; font-weight:bold;""
                            >happy</p>
                            <div style=""width:240px; margin: auto;"">
                                <img src=""images/map05_BuGn_scaleDef_orientDef_180.png"" style= ""width:200px""alt=""img"">
                            </div>
                        </div>",0.54,"",0,"",NA,"","images/map05_BuGn_scaleDef_orientDef_180.png","happy",1,5,5,"BuGn","orientDef","scaleDef","180",NA,NA
"","","","","","html-slider-response",104,779871,"0.0-98.0","y92alv61wq",48,NA,"<div style=""width:500px;"">
                            <p style=""font-size:50px; font-weight:bold;""
                            >happy</p>
                            <div style=""width:240px; margin: auto;"">
                                <img src=""images/map07_RdGy_scaleRev_orientMir_270.png"" style= ""width:200px""alt=""img"">
                            </div>
                        </div>",0.255,"",0,"",NA,"","images/map07_RdGy_scaleRev_orientMir_270.png","happy",1,7,7,"RdGy","orientMir","scaleRev","270",NA,NA
"","","","","","html-slider-response",105,782322,"0.0-99.0","y92alv61wq",48,NA,"<div style=""width:500px;"">
                            <p style=""font-size:50px; font-weight:bold;""
                            >happy</p>
                            <div style=""width:240px; margin: auto;"">
                                <img src=""images/map02_PuBu_scaleRev_orientMir_090.png"" style= ""width:200px""alt=""img"">
                            </div>
                        </div>",0.57,"",0,"",NA,"","images/map02_PuBu_scaleRev_orientMir_090.png","happy",1,2,2,"PuBu","orientMir","scaleRev","090",NA,NA
"","","","","","html-slider-response",106,784339,"0.0-100.0","y92alv61wq",48,NA,"<div style=""width:500px;"">
                            <p style=""font-size:50px; font-weight:bold;""
                            >happy</p>
                            <div style=""width:240px; margin: auto;"">
                                <img src=""images/map12_seismic_scaleRev_orientMir_090.png"" style= ""width:200px""alt=""img"">
                            </div>
                        </div>",0.555,"",0,"",NA,"","images/map12_seismic_scaleRev_orientMir_090.png","happy",1,12,12,"seismic","orientMir","scaleRev","090",NA,NA
"","","","","","html-slider-response",107,786472,"0.0-101.0","y92alv61wq",48,NA,"<div style=""width:500px;"">
                            <p style=""font-size:50px; font-weight:bold;""
                            >happy</p>
                            <div style=""width:240px; margin: auto;"">
                                <img src=""images/map26_Oranges_scaleRev_orientDef_270.png"" style= ""width:200px""alt=""img"">
                            </div>
                        </div>",0.51,"",0,"",NA,"","images/map26_Oranges_scaleRev_orientDef_270.png","happy",1,26,26,"Oranges","orientDef","scaleRev","270",NA,NA
"","","","","","html-slider-response",108,791371,"0.0-102.0","y92alv61wq",48,NA,"<div style=""width:500px;"">
                            <p style=""font-size:50px; font-weight:bold;""
                            >happy</p>
                            <div style=""width:240px; margin: auto;"">
                                <img src=""images/map12_coolwarm_scaleDef_orientDef_000.png"" style= ""width:200px""alt=""img"">
                            </div>
                        </div>",0.395,"",0,"",NA,"","images/map12_coolwarm_scaleDef_orientDef_000.png","happy",1,12,12,"coolwarm","orientDef","scaleDef","000",NA,NA
"","","","","","html-slider-response",109,793790,"0.0-103.0","y92alv61wq",48,NA,"<div style=""width:500px;"">
                            <p style=""font-size:50px; font-weight:bold;""
                            >happy</p>
                            <div style=""width:240px; margin: auto;"">
                                <img src=""images/map07_PuOr_scaleRev_orientMir_090.png"" style= ""width:200px""alt=""img"">
                            </div>
                        </div>",0.5325,"",0,"",NA,"","images/map07_PuOr_scaleRev_orientMir_090.png","happy",1,7,7,"PuOr","orientMir","scaleRev","090",NA,NA
"","","","","","html-slider-response",110,795856,"0.0-104.0","y92alv61wq",48,NA,"<div style=""width:500px;"">
                            <p style=""font-size:50px; font-weight:bold;""
                            >happy</p>
                            <div style=""width:240px; margin: auto;"">
                                <img src=""images/map27_PuRd_scaleDef_orientMir_000.png"" style= ""width:200px""alt=""img"">
                            </div>
                        </div>",0.8375,"",0,"",NA,"","images/map27_PuRd_scaleDef_orientMir_000.png","happy",1,27,27,"PuRd","orientMir","scaleDef","000",NA,NA
"","","","","","html-slider-response",111,797771,"0.0-105.0","y92alv61wq",48,NA,"<div style=""width:500px;"">
                            <p style=""font-size:50px; font-weight:bold;""
                            >happy</p>
                            <div style=""width:240px; margin: auto;"">
                                <img src=""images/map27_RdPu_scaleDef_orientMir_180.png"" style= ""width:200px""alt=""img"">
                            </div>
                        </div>",0.7225,"",0,"",NA,"","images/map27_RdPu_scaleDef_orientMir_180.png","happy",1,27,27,"RdPu","orientMir","scaleDef","180",NA,NA
"","","","","","html-slider-response",112,799689,"0.0-106.0","y92alv61wq",48,NA,"<div style=""width:500px;"">
                            <p style=""font-size:50px; font-weight:bold;""
                            >happy</p>
                            <div style=""width:240px; margin: auto;"">
                                <img src=""images/map12_berlin_scaleRev_orientMir_270.png"" style= ""width:200px""alt=""img"">
                            </div>
                        </div>",0.3,"",0,"",NA,"","images/map12_berlin_scaleRev_orientMir_270.png","happy",1,12,12,"berlin","orientMir","scaleRev","270",NA,NA
"","","","","","html-slider-response",113,801754,"0.0-107.0","y92alv61wq",48,NA,"<div style=""width:500px;"">
                            <p style=""font-size:50px; font-weight:bold;""
                            >happy</p>
                            <div style=""width:240px; margin: auto;"">
                                <img src=""images/map23_Purples_scaleRev_orientMir_090.png"" style= ""width:200px""alt=""img"">
                            </div>
                        </div>",0.565,"",0,"",NA,"","images/map23_Purples_scaleRev_orientMir_090.png","happy",1,23,23,"Purples","orientMir","scaleRev","090",NA,NA
"","","","","","html-slider-response",114,803489,"0.0-108.0","y92alv61wq",48,NA,"<div style=""width:500px;"">
                            <p style=""font-size:50px; font-weight:bold;""
                            >happy</p>
                            <div style=""width:240px; margin: auto;"">
                                <img src=""images/map02_YlGnBu_scaleRev_orientMir_270.png"" style= ""width:200px""alt=""img"">
                            </div>
                        </div>",0.57,"",0,"",NA,"","images/map02_YlGnBu_scaleRev_orientMir_270.png","happy",1,2,2,"YlGnBu","orientMir","scaleRev","270",NA,NA
"","","","","","html-slider-response",115,805271,"0.0-109.0","y92alv61wq",48,NA,"<div style=""width:500px;"">
                            <p style=""font-size:50px; font-weight:bold;""
                            >happy</p>
                            <div style=""width:240px; margin: auto;"">
                                <img src=""images/map15_magma_scaleRev_orientMir_270.png"" style= ""width:200px""alt=""img"">
                            </div>
                        </div>",0.485,"",0,"",NA,"","images/map15_magma_scaleRev_orientMir_270.png","happy",1,15,15,"magma","orientMir","scaleRev","270",NA,NA
"","","","","","html-slider-response",116,807056,"0.0-110.0","y92alv61wq",48,NA,"<div style=""width:500px;"">
                            <p style=""font-size:50px; font-weight:bold;""
                            >happy</p>
                            <div style=""width:240px; margin: auto;"">
                                <img src=""images/map13_vanimo_scaleDef_orientDef_180.png"" style= ""width:200px""alt=""img"">
                            </div>
                        </div>",0.2475,"",0,"",NA,"","images/map13_vanimo_scaleDef_orientDef_180.png","happy",1,13,13,"vanimo","orientDef","scaleDef","180",NA,NA
"","","","","","html-slider-response",117,809304,"0.0-111.0","y92alv61wq",48,NA,"<div style=""width:500px;"">
                            <p style=""font-size:50px; font-weight:bold;""
                            >happy</p>
                            <div style=""width:240px; margin: auto;"">
                                <img src=""images/map26_Reds_scaleRev_orientMir_090.png"" style= ""width:200px""alt=""img"">
                            </div>
                        </div>",0.42,"",0,"",NA,"","images/map26_Reds_scaleRev_orientMir_090.png","happy",1,26,26,"Reds","orientMir","scaleRev","090",NA,NA
"","","","","","html-slider-response",118,811456,"0.0-112.0","y92alv61wq",48,NA,"<div style=""width:500px;"">
                            <p style=""font-size:50px; font-weight:bold;""
                            >happy</p>
                            <div style=""width:240px; margin: auto;"">
                                <img src=""images/map13_gist_earth_scaleDef_orientMir_000.png"" style= ""width:200px""alt=""img"">
                            </div>
                        </div>",0.6,"",0,"",NA,"","images/map13_gist_earth_scaleDef_orientMir_000.png","happy",1,13,13,"gist","scaleDef","earth","orientMir",NA,NA
"","","","","","html-slider-response",119,813704,"0.0-113.0","y92alv61wq",48,NA,"<div style=""width:500px;"">
                            <p style=""font-size:50px; font-weight:bold;""
                            >happy</p>
                            <div style=""width:240px; margin: auto;"">
                                <img src=""images/map27_PuRd_scaleRev_orientMir_090.png"" style= ""width:200px""alt=""img"">
                            </div>
                        </div>",0.9125,"",0,"",NA,"","images/map27_PuRd_scaleRev_orientMir_090.png","happy",1,27,27,"PuRd","orientMir","scaleRev","090",NA,NA
"","","","","","html-slider-response",120,815705,"0.0-114.0","y92alv61wq",48,NA,"<div style=""width:500px;"">
                            <p style=""font-size:50px; font-weight:bold;""
                            >happy</p>
                            <div style=""width:240px; margin: auto;"">
                                <img src=""images/map13_turbo_scaleRev_orientMir_270.png"" style= ""width:200px""alt=""img"">
                            </div>
                        </div>",0.4175,"",0,"",NA,"","images/map13_turbo_scaleRev_orientMir_270.png","happy",1,13,13,"turbo","orientMir","scaleRev","270",NA,NA
"","","","","","html-slider-response",121,818672,"0.0-115.0","y92alv61wq",48,NA,"<div style=""width:500px;"">
                            <p style=""font-size:50px; font-weight:bold;""
                            >happy</p>
                            <div style=""width:240px; margin: auto;"">
                                <img src=""images/map10_RdYlBu_scaleDef_orientDef_180.png"" style= ""width:200px""alt=""img"">
                            </div>
                        </div>",0.5625,"",0,"",NA,"","images/map10_RdYlBu_scaleDef_orientDef_180.png","happy",1,10,10,"RdYlBu","orientDef","scaleDef","180",NA,NA
"","","","","","html-slider-response",122,821296,"0.0-116.0","y92alv61wq",48,NA,"<div style=""width:500px;"">
                            <p style=""font-size:50px; font-weight:bold;""
                            >happy</p>
                            <div style=""width:240px; margin: auto;"">
                                <img src=""images/map27_OrRd_scaleDef_orientDef_180.png"" style= ""width:200px""alt=""img"">
                            </div>
                        </div>",0.5775,"",0,"",NA,"","images/map27_OrRd_scaleDef_orientDef_180.png","happy",1,27,27,"OrRd","orientDef","scaleDef","180",NA,NA
"","","","","","html-slider-response",123,823387,"0.0-117.0","y92alv61wq",48,NA,"<div style=""width:500px;"">
                            <p style=""font-size:50px; font-weight:bold;""
                            >happy</p>
                            <div style=""width:240px; margin: auto;"">
                                <img src=""images/map23_Greys_scaleRev_orientDef_270.png"" style= ""width:200px""alt=""img"">
                            </div>
                        </div>",0.2625,"",0,"",NA,"","images/map23_Greys_scaleRev_orientDef_270.png","happy",1,23,23,"Greys","orientDef","scaleRev","270",NA,NA
"","","","","","html-slider-response",124,825689,"0.0-118.0","y92alv61wq",48,NA,"<div style=""width:500px;"">
                            <p style=""font-size:50px; font-weight:bold;""
                            >happy</p>
                            <div style=""width:240px; margin: auto;"">
                                <img src=""images/map23_cividis_scaleDef_orientDef_000.png"" style= ""width:200px""alt=""img"">
                            </div>
                        </div>",0.145,"",0,"",NA,"","images/map23_cividis_scaleDef_orientDef_000.png","happy",1,23,23,"cividis","orientDef","scaleDef","000",NA,NA
"","","","","","html-slider-response",125,828472,"0.0-119.0","y92alv61wq",48,NA,"<div style=""width:500px;"">
                            <p style=""font-size:50px; font-weight:bold;""
                            >happy</p>
                            <div style=""width:240px; margin: auto;"">
                                <img src=""images/map10_Spectral_scaleRev_orientMir_270.png"" style= ""width:200px""alt=""img"">
                            </div>
                        </div>",0.535,"",0,"",NA,"","images/map10_Spectral_scaleRev_orientMir_270.png","happy",1,10,10,"Spectral","orientMir","scaleRev","270",NA,NA
"","","","","","html-slider-response",126,830556,"0.0-120.0","y92alv61wq",48,NA,"<div style=""width:500px;"">
                            <p style=""font-size:50px; font-weight:bold;""
                            >happy</p>
                            <div style=""width:240px; margin: auto;"">
                                <img src=""images/map26_Greens_scaleDef_orientDef_000.png"" style= ""width:200px""alt=""img"">
                            </div>
                        </div>",0.5825,"",0,"",NA,"","images/map26_Greens_scaleDef_orientDef_000.png","happy",1,26,26,"Greens","orientDef","scaleDef","000",NA,NA
"","","","","","html-slider-response",127,832270,"0.0-121.0","y92alv61wq",48,NA,"<div style=""width:500px;"">
                            <p style=""font-size:50px; font-weight:bold;""
                            >happy</p>
                            <div style=""width:240px; margin: auto;"">
                                <img src=""images/map26_Greens_scaleRev_orientDef_090.png"" style= ""width:200px""alt=""img"">
                            </div>
                        </div>",0.6525,"",0,"",NA,"","images/map26_Greens_scaleRev_orientDef_090.png","happy",1,26,26,"Greens","orientDef","scaleRev","090",NA,NA
"","","","","","html-slider-response",128,834138,"0.0-122.0","y92alv61wq",48,NA,"<div style=""width:500px;"">
                            <p style=""font-size:50px; font-weight:bold;""
                            >happy</p>
                            <div style=""width:240px; margin: auto;"">
                                <img src=""images/map07_RdGy_scaleDef_orientMir_180.png"" style= ""width:200px""alt=""img"">
                            </div>
                        </div>",0.285,"",0,"",NA,"","images/map07_RdGy_scaleDef_orientMir_180.png","happy",1,7,7,"RdGy","orientMir","scaleDef","180",NA,NA
"","","","","","html-slider-response",129,836389,"0.0-123.0","y92alv61wq",48,NA,"<div style=""width:500px;"">
                            <p style=""font-size:50px; font-weight:bold;""
                            >happy</p>
                            <div style=""width:240px; margin: auto;"">
                                <img src=""images/map07_PRGn_scaleRev_orientDef_090.png"" style= ""width:200px""alt=""img"">
                            </div>
                        </div>",0.5675,"",0,"",NA,"","images/map07_PRGn_scaleRev_orientDef_090.png","happy",1,7,7,"PRGn","orientDef","scaleRev","090",NA,NA
"","","","","","html-slider-response",130,839056,"0.0-124.0","y92alv61wq",48,NA,"<div style=""width:500px;"">
                            <p style=""font-size:50px; font-weight:bold;""
                            >happy</p>
                            <div style=""width:240px; margin: auto;"">
                                <img src=""images/map26_Oranges_scaleDef_orientDef_180.png"" style= ""width:200px""alt=""img"">
                            </div>
                        </div>",0.655,"",0,"",NA,"","images/map26_Oranges_scaleDef_orientDef_180.png","happy",1,26,26,"Oranges","orientDef","scaleDef","180",NA,NA
"","","","","","html-slider-response",131,841738,"0.0-125.0","y92alv61wq",48,NA,"<div style=""width:500px;"">
                            <p style=""font-size:50px; font-weight:bold;""
                            >happy</p>
                            <div style=""width:240px; margin: auto;"">
                                <img src=""images/map07_BrBG_scaleDef_orientDef_180.png"" style= ""width:200px""alt=""img"">
                            </div>
                        </div>",0.5975,"",0,"",NA,"","images/map07_BrBG_scaleDef_orientDef_180.png","happy",1,7,7,"BrBG","orientDef","scaleDef","180",NA,NA
"","","","","","html-slider-response",132,844622,"0.0-126.0","y92alv61wq",48,NA,"<div style=""width:500px;"">
                            <p style=""font-size:50px; font-weight:bold;""
                            >happy</p>
                            <div style=""width:240px; margin: auto;"">
                                <img src=""images/map15_magma_scaleDef_orientMir_180.png"" style= ""width:200px""alt=""img"">
                            </div>
                        </div>",0.5875,"",0,"",NA,"","images/map15_magma_scaleDef_orientMir_180.png","happy",1,15,15,"magma","orientMir","scaleDef","180",NA,NA
"","","","","","html-slider-response",133,846689,"0.0-127.0","y92alv61wq",48,NA,"<div style=""width:500px;"">
                            <p style=""font-size:50px; font-weight:bold;""
                            >happy</p>
                            <div style=""width:240px; margin: auto;"">
                                <img src=""images/map12_coolwarm_scaleRev_orientDef_090.png"" style= ""width:200px""alt=""img"">
                            </div>
                        </div>",0.8475,"",0,"",NA,"","images/map12_coolwarm_scaleRev_orientDef_090.png","happy",1,12,12,"coolwarm","orientDef","scaleRev","090",NA,NA
"","","","","","html-slider-response",134,848639,"0.0-128.0","y92alv61wq",48,NA,"<div style=""width:500px;"">
                            <p style=""font-size:50px; font-weight:bold;""
                            >happy</p>
                            <div style=""width:240px; margin: auto;"">
                                <img src=""images/map27_OrRd_scaleRev_orientDef_270.png"" style= ""width:200px""alt=""img"">
                            </div>
                        </div>",0.6975,"",0,"",NA,"","images/map27_OrRd_scaleRev_orientDef_270.png","happy",1,27,27,"OrRd","orientDef","scaleRev","270",NA,NA
"","","","","","html-slider-response",135,851039,"0.0-129.0","y92alv61wq",48,NA,"<div style=""width:500px;"">
                            <p style=""font-size:50px; font-weight:bold;""
                            >happy</p>
                            <div style=""width:240px; margin: auto;"">
                                <img src=""images/map13_managua_scaleRev_orientDef_090.png"" style= ""width:200px""alt=""img"">
                            </div>
                        </div>",0.3325,"",0,"",NA,"","images/map13_managua_scaleRev_orientDef_090.png","happy",1,13,13,"managua","orientDef","scaleRev","090",NA,NA
"","","","","","html-slider-response",136,852904,"0.0-130.0","y92alv61wq",48,NA,"<div style=""width:500px;"">
                            <p style=""font-size:50px; font-weight:bold;""
                            >happy</p>
                            <div style=""width:240px; margin: auto;"">
                                <img src=""images/map05_BuGn_scaleRev_orientDef_270.png"" style= ""width:200px""alt=""img"">
                            </div>
                        </div>",0.605,"",0,"",NA,"","images/map05_BuGn_scaleRev_orientDef_270.png","happy",1,5,5,"BuGn","orientDef","scaleRev","270",NA,NA
"","","","","","html-slider-response",137,855522,"0.0-131.0","y92alv61wq",48,NA,"<div style=""width:500px;"">
                            <p style=""font-size:50px; font-weight:bold;""
                            >happy</p>
                            <div style=""width:240px; margin: auto;"">
                                <img src=""images/map02_BuPu_scaleRev_orientDef_090.png"" style= ""width:200px""alt=""img"">
                            </div>
                        </div>",0.6225,"",0,"",NA,"","images/map02_BuPu_scaleRev_orientDef_090.png","happy",1,2,2,"BuPu","orientDef","scaleRev","090",NA,NA
"","","","","","html-slider-response",138,857873,"0.0-132.0","y92alv61wq",48,NA,"<div style=""width:500px;"">
                            <p style=""font-size:50px; font-weight:bold;""
                            >happy</p>
                            <div style=""width:240px; margin: auto;"">
                                <img src=""images/map23_Greys_scaleDef_orientDef_180.png"" style= ""width:200px""alt=""img"">
                            </div>
                        </div>",0.0975,"",0,"",NA,"","images/map23_Greys_scaleDef_orientDef_180.png","happy",1,23,23,"Greys","orientDef","scaleDef","180",NA,NA
"","","","","","html-slider-response",139,862206,"0.0-133.0","y92alv61wq",48,NA,"<div style=""width:500px;"">
                            <p style=""font-size:50px; font-weight:bold;""
                            >happy</p>
                            <div style=""width:240px; margin: auto;"">
                                <img src=""images/map26_Reds_scaleDef_orientMir_000.png"" style= ""width:200px""alt=""img"">
                            </div>
                        </div>",0.6475,"",0,"",NA,"","images/map26_Reds_scaleDef_orientMir_000.png","happy",1,26,26,"Reds","orientMir","scaleDef","000",NA,NA
"","","","","","html-slider-response",140,864388,"0.0-134.0","y92alv61wq",48,NA,"<div style=""width:500px;"">
                            <p style=""font-size:50px; font-weight:bold;""
                            >happy</p>
                            <div style=""width:240px; margin: auto;"">
                                <img src=""images/map15_plasma_scaleRev_orientDef_270.png"" style= ""width:200px""alt=""img"">
                            </div>
                        </div>",0.7725,"",0,"",NA,"","images/map15_plasma_scaleRev_orientDef_270.png","happy",1,15,15,"plasma","orientDef","scaleRev","270",NA,NA
"","","","","","html-slider-response",141,866740,"0.0-135.0","y92alv61wq",48,NA,"<div style=""width:500px;"">
                            <p style=""font-size:50px; font-weight:bold;""
                            >happy</p>
                            <div style=""width:240px; margin: auto;"">
                                <img src=""images/map27_RdPu_scaleRev_orientMir_270.png"" style= ""width:200px""alt=""img"">
                            </div>
                        </div>",1,"",0,"",NA,"","images/map27_RdPu_scaleRev_orientMir_270.png","happy",1,27,27,"RdPu","orientMir","scaleRev","270",NA,NA
"","","","","","html-slider-response",142,868972,"0.0-136.0","y92alv61wq",48,NA,"<div style=""width:500px;"">
                            <p style=""font-size:50px; font-weight:bold;""
                            >happy</p>
                            <div style=""width:240px; margin: auto;"">
                                <img src=""images/map12_bwr_scaleDef_orientDef_180.png"" style= ""width:200px""alt=""img"">
                            </div>
                        </div>",0.805,"",0,"",NA,"","images/map12_bwr_scaleDef_orientDef_180.png","happy",1,12,12,"bwr","orientDef","scaleDef","180",NA,NA
"","","","","","html-button-response",143,872443,"0.0-137.0","y92alv61wq",48,2968,"<p>You are doing great!<br></br> You are halway done with the current block. When you are ready to continue, click the 'Continue' button.</p>",0.5,"",NA,"",NA,"","","",NA,NA,NA,"","","","",NA,NA
"","","","","","html-slider-response",144,874873,"0.0-138.0","y92alv61wq",48,NA,"<div style=""width:500px;"">
                            <p style=""font-size:50px; font-weight:bold;""
                            >happy</p>
                            <div style=""width:240px; margin: auto;"">
                                <img src=""images/map10_Spectral_scaleDef_orientMir_180.png"" style= ""width:200px""alt=""img"">
                            </div>
                        </div>",0.595,"",0,"",NA,"","images/map10_Spectral_scaleDef_orientMir_180.png","happy",1,10,10,"Spectral","orientMir","scaleDef","180",NA,NA
"","","","","","html-slider-response",145,877073,"0.0-139.0","y92alv61wq",48,NA,"<div style=""width:500px;"">
                            <p style=""font-size:50px; font-weight:bold;""
                            >happy</p>
                            <div style=""width:240px; margin: auto;"">
                                <img src=""images/map10_RdBu_scaleRev_orientDef_090.png"" style= ""width:200px""alt=""img"">
                            </div>
                        </div>",0.64,"",0,"",NA,"","images/map10_RdBu_scaleRev_orientDef_090.png","happy",1,10,10,"RdBu","orientDef","scaleRev","090",NA,NA
"","","","","","html-slider-response",146,878787,"0.0-140.0","y92alv61wq",48,NA,"<div style=""width:500px;"">
                            <p style=""font-size:50px; font-weight:bold;""
                            >happy</p>
                            <div style=""width:240px; margin: auto;"">
                                <img src=""images/map23_Blues_scaleDef_orientMir_180.png"" style= ""width:200px""alt=""img"">
                            </div>
                        </div>",0.565,"",0,"",NA,"","images/map23_Blues_scaleDef_orientMir_180.png","happy",1,23,23,"Blues","orientMir","scaleDef","180",NA,NA
"","","","","","html-slider-response",147,880804,"0.0-141.0","y92alv61wq",48,NA,"<div style=""width:500px;"">
                            <p style=""font-size:50px; font-weight:bold;""
                            >happy</p>
                            <div style=""width:240px; margin: auto;"">
                                <img src=""images/map10_RdYlGn_scaleRev_orientMir_090.png"" style= ""width:200px""alt=""img"">
                            </div>
                        </div>",0.585,"",0,"",NA,"","images/map10_RdYlGn_scaleRev_orientMir_090.png","happy",1,10,10,"RdYlGn","orientMir","scaleRev","090",NA,NA
"","","","","","html-slider-response",148,883388,"0.0-142.0","y92alv61wq",48,NA,"<div style=""width:500px;"">
                            <p style=""font-size:50px; font-weight:bold;""
                            >happy</p>
                            <div style=""width:240px; margin: auto;"">
                                <img src=""images/map23_cividis_scaleRev_orientDef_090.png"" style= ""width:200px""alt=""img"">
                            </div>
                        </div>",0.125,"",0,"",NA,"","images/map23_cividis_scaleRev_orientDef_090.png","happy",1,23,23,"cividis","orientDef","scaleRev","090",NA,NA
"","","","","","html-slider-response",149,885836,"0.0-143.0","y92alv61wq",48,NA,"<div style=""width:500px;"">
                            <p style=""font-size:50px; font-weight:bold;""
                            >happy</p>
                            <div style=""width:240px; margin: auto;"">
                                <img src=""images/map05_YlGn_scaleDef_orientMir_000.png"" style= ""width:200px""alt=""img"">
                            </div>
                        </div>",0.565,"",0,"",NA,"","images/map05_YlGn_scaleDef_orientMir_000.png","happy",1,5,5,"YlGn","orientMir","scaleDef","000",NA,NA
"","","","","","html-slider-response",150,888922,"0.0-144.0","y92alv61wq",48,NA,"<div style=""width:500px;"">
                            <p style=""font-size:50px; font-weight:bold;""
                            >happy</p>
                            <div style=""width:240px; margin: auto;"">
                                <img src=""images/map07_BrBG_scaleRev_orientDef_270.png"" style= ""width:200px""alt=""img"">
                            </div>
                        </div>",0.4075,"",0,"",NA,"","images/map07_BrBG_scaleRev_orientDef_270.png","happy",1,7,7,"BrBG","orientDef","scaleRev","270",NA,NA
"","","","","","html-slider-response",151,890940,"0.0-145.0","y92alv61wq",48,NA,"<div style=""width:500px;"">
                            <p style=""font-size:50px; font-weight:bold;""
                            >happy</p>
                            <div style=""width:240px; margin: auto;"">
                                <img src=""images/map02_BuPu_scaleDef_orientDef_000.png"" style= ""width:200px""alt=""img"">
                            </div>
                        </div>",0.715,"",0,"",NA,"","images/map02_BuPu_scaleDef_orientDef_000.png","happy",1,2,2,"BuPu","orientDef","scaleDef","000",NA,NA
"","","","","","html-slider-response",152,893156,"0.0-146.0","y92alv61wq",48,NA,"<div style=""width:500px;"">
                            <p style=""font-size:50px; font-weight:bold;""
                            >happy</p>
                            <div style=""width:240px; margin: auto;"">
                                <img src=""images/map27_YlOrRd_scaleDef_orientDef_000.png"" style= ""width:200px""alt=""img"">
                            </div>
                        </div>",0.655,"",0,"",NA,"","images/map27_YlOrRd_scaleDef_orientDef_000.png","happy",1,27,27,"YlOrRd","orientDef","scaleDef","000",NA,NA
"","","","","","html-slider-response",153,894989,"0.0-147.0","y92alv61wq",48,NA,"<div style=""width:500px;"">
                            <p style=""font-size:50px; font-weight:bold;""
                            >happy</p>
                            <div style=""width:240px; margin: auto;"">
                                <img src=""images/map05_YlGn_scaleRev_orientMir_090.png"" style= ""width:200px""alt=""img"">
                            </div>
                        </div>",0.5825,"",0,"",NA,"","images/map05_YlGn_scaleRev_orientMir_090.png","happy",1,5,5,"YlGn","orientMir","scaleRev","090",NA,NA
"","","","","","html-slider-response",154,896789,"0.0-148.0","y92alv61wq",48,NA,"<div style=""width:500px;"">
                            <p style=""font-size:50px; font-weight:bold;""
                            >happy</p>
                            <div style=""width:240px; margin: auto;"">
                                <img src=""images/map26_YlOrBr_scaleRev_orientMir_270.png"" style= ""width:200px""alt=""img"">
                            </div>
                        </div>",0.675,"",0,"",NA,"","images/map26_YlOrBr_scaleRev_orientMir_270.png","happy",1,26,26,"YlOrBr","orientMir","scaleRev","270",NA,NA
"","","","","","html-slider-response",155,898887,"0.0-149.0","y92alv61wq",48,NA,"<div style=""width:500px;"">
                            <p style=""font-size:50px; font-weight:bold;""
                            >happy</p>
                            <div style=""width:240px; margin: auto;"">
                                <img src=""images/map27_YlOrRd_scaleRev_orientDef_090.png"" style= ""width:200px""alt=""img"">
                            </div>
                        </div>",0.6175,"",0,"",NA,"","images/map27_YlOrRd_scaleRev_orientDef_090.png","happy",1,27,27,"YlOrRd","orientDef","scaleRev","090",NA,NA
"","","","","","html-slider-response",156,900671,"0.0-150.0","y92alv61wq",48,NA,"<div style=""width:500px;"">
                            <p style=""font-size:50px; font-weight:bold;""
                            >happy</p>
                            <div style=""width:240px; margin: auto;"">
                                <img src=""images/map15_viridis_scaleRev_orientDef_090.png"" style= ""width:200px""alt=""img"">
                            </div>
                        </div>",0.3375,"",0,"",NA,"","images/map15_viridis_scaleRev_orientDef_090.png","happy",1,15,15,"viridis","orientDef","scaleRev","090",NA,NA
"","","","","","html-slider-response",157,903273,"0.0-151.0","y92alv61wq",48,NA,"<div style=""width:500px;"">
                            <p style=""font-size:50px; font-weight:bold;""
                            >happy</p>
                            <div style=""width:240px; margin: auto;"">
                                <img src=""images/map12_seismic_scaleDef_orientMir_000.png"" style= ""width:200px""alt=""img"">
                            </div>
                        </div>",0.4925,"",0,"",NA,"","images/map12_seismic_scaleDef_orientMir_000.png","happy",1,12,12,"seismic","orientMir","scaleDef","000",NA,NA
"","","","","","html-slider-response",158,905955,"0.0-152.0","y92alv61wq",48,NA,"<div style=""width:500px;"">
                            <p style=""font-size:50px; font-weight:bold;""
                            >happy</p>
                            <div style=""width:240px; margin: auto;"">
                                <img src=""images/map02_YlGnBu_scaleDef_orientMir_180.png"" style= ""width:200px""alt=""img"">
                            </div>
                        </div>",0.605,"",0,"",NA,"","images/map02_YlGnBu_scaleDef_orientMir_180.png","happy",1,2,2,"YlGnBu","orientMir","scaleDef","180",NA,NA
"","","","","","html-slider-response",159,907804,"0.0-153.0","y92alv61wq",48,NA,"<div style=""width:500px;"">
                            <p style=""font-size:50px; font-weight:bold;""
                            >happy</p>
                            <div style=""width:240px; margin: auto;"">
                                <img src=""images/map02_GnBu_scaleRev_orientDef_270.png"" style= ""width:200px""alt=""img"">
                            </div>
                        </div>",0.6625,"",0,"",NA,"","images/map02_GnBu_scaleRev_orientDef_270.png","happy",1,2,2,"GnBu","orientDef","scaleRev","270",NA,NA
"","","","","","html-slider-response",160,910673,"0.0-154.0","y92alv61wq",48,NA,"<div style=""width:500px;"">
                            <p style=""font-size:50px; font-weight:bold;""
                            >happy</p>
                            <div style=""width:240px; margin: auto;"">
                                <img src=""images/map05_PiYG_scaleDef_orientMir_180.png"" style= ""width:200px""alt=""img"">
                            </div>
                        </div>",0.8975,"",0,"",NA,"","images/map05_PiYG_scaleDef_orientMir_180.png","happy",1,5,5,"PiYG","orientMir","scaleDef","180",NA,NA
"","","","","","html-slider-response",161,913123,"0.0-155.0","y92alv61wq",48,NA,"<div style=""width:500px;"">
                            <p style=""font-size:50px; font-weight:bold;""
                            >happy</p>
                            <div style=""width:240px; margin: auto;"">
                                <img src=""images/map07_PuOr_scaleDef_orientMir_000.png"" style= ""width:200px""alt=""img"">
                            </div>
                        </div>",0.685,"",0,"",NA,"","images/map07_PuOr_scaleDef_orientMir_000.png","happy",1,7,7,"PuOr","orientMir","scaleDef","000",NA,NA
"","","","","","html-slider-response",162,914989,"0.0-156.0","y92alv61wq",48,NA,"<div style=""width:500px;"">
                            <p style=""font-size:50px; font-weight:bold;""
                            >happy</p>
                            <div style=""width:240px; margin: auto;"">
                                <img src=""images/map05_PuBuGn_scaleRev_orientDef_090.png"" style= ""width:200px""alt=""img"">
                            </div>
                        </div>",0.545,"",0,"",NA,"","images/map05_PuBuGn_scaleRev_orientDef_090.png","happy",1,5,5,"PuBuGn","orientDef","scaleRev","090",NA,NA
"","","","","","html-slider-response",163,917221,"0.0-157.0","y92alv61wq",48,NA,"<div style=""width:500px;"">
                            <p style=""font-size:50px; font-weight:bold;""
                            >happy</p>
                            <div style=""width:240px; margin: auto;"">
                                <img src=""images/map15_inferno_scaleDef_orientMir_000.png"" style= ""width:200px""alt=""img"">
                            </div>
