"success","timeout","failed_images","failed_audio","failed_video","trial_type","trial_index","time_elapsed","internal_node_id","subject_id","condition_num","rt","stimulus","response","question_order","slider_start","practiceTrial","practiceTrialNum","correct","image_path","concept","repetition","map_id","map_num","scale_name","orientation_code","mapping_code","rotation_code","ishihara_plate","correct_response"
"true","false","[]","[]","[]","preload",0,317,"0.0-0.0","l5b83c4qbl",49,NA,"",NA,"",NA,"",NA,"","","",NA,NA,NA,"","","","",NA,NA
"","","","","","html-button-response",1,2143,"0.0-1.0","l5b83c4qbl",49,1824,"Welcome to our experiment!<p>At the bottom of this screen, you will see a button that says ""Begin Experiment"".<br>Please only click that button when you are ready to complete the 30 minute experiment in one sitting.</p><p> Once you click that button, it will not be possible to restart the experiment.",0.5,"",NA,"",NA,"","","",NA,NA,NA,"","","","",NA,NA
"true","","","","","fullscreen",2,4923,"0.0-2.0","l5b83c4qbl",49,1777,"",NA,"",NA,"",NA,"","","",NA,NA,NA,"","","","",NA,NA
"","","","","","survey-multi-select",3,8483,"0.0-3.0","l5b83c4qbl",49,3555,"",NA,"[0]",NA,"",NA,"","","",NA,NA,NA,"","","","",NA,NA
"","","","","","html-button-response",4,10042,"0.0-4.0","l5b83c4qbl",49,1557,"Welcome! <p> This experiment involves two parts: demographic information, followed by the experimental task.<p> It will take about 30 minutes to complete both parts.",0.5,"",NA,"",NA,"","","",NA,NA,NA,"","","","",NA,NA
"","","","","","survey-text",5,22307,"0.0-5.0","l5b83c4qbl",49,12249,"",NA,"",NA,"",NA,"","","",NA,NA,NA,"","","","",NA,NA
"","","","","","html-slider-response",6,51972,"0.0-6.0","l5b83c4qbl",49,29662,"<div style='text-align:left; font-size:20px; line-height:25px; width: 1000px;'>
                                During this experiment you will be asked to rate how much you associate maps with                    different concepts.<br> Below, you can see some examples of the maps you will be asked to rate. Above the maps
                    is the list of concepts.<br>You will be asked                    to rate how much you associate each map with each concept on a scale from 'not at all' to 'very much' like the
                    one below. <br><br>
                    Now, please look at the list of concepts and maps. For each concept, think about the map you associate 'very
                    much' with the concept.<br>                     When you see that map during the experiment, please rate it near the 'very much' endpoint of the
                    scale.<br>Now, please think about which map you associate 'not at all'                     with each concept. When you see that map during the experiment, please rate it near the 'not at all' endpoint
                    of the scale.<br>
                    Please use the full range of the scale. That is, if a map is somewhat associated with the concept, you would
                    click partway between the middle point and right side of the scale.                    You will be asked to rate each map for a given concept before moving on to the next concept.<br>Press the
                    'Continue' button for instructions on how to use the slider.                    <br>
                </div>

                <div style=""width: 500px; margin: 0 auto;"">
                    <!-- Centered text paragraphs -->
                    <div style=""text-align: center; width: 500px;"">
                        <p style=""font-size:25px; line-height:15px;"">
                            sad&nbsp;&nbsp;&nbsp;&nbsp;
                            angry&nbsp;&nbsp;&nbsp;&nbsp;
                            happy&nbsp;&nbsp;&nbsp;&nbsp;
                            disgust&nbsp;&nbsp;&nbsp;&nbsp;
                            fearful
                        </p>
                        <!-- <p style=""font-size:20px; line-height:15px;"">angry</p>
                        <p style=""font-size:20px;line-height:15px;"">happy</p>
                        <p style=""font-size:20px;line-height:15px;"">disgust</p>
                        <p style=""font-size:20px;line-height:15px;"">fearful</p> -->
                    </div>
            

                    <!-- Grid section -->
                   <div style=""display: flex; justify-content: center; padding-top: 15px;"">
                    <div style=""display: grid; grid-template-columns: repeat(10, 55px); grid-gap: 5px; width: auto;"">
                        <img src=""images/map27_PuRd_scaleRev_orientMir_180.png"" alt=""map"" style=""width: 100%;""><img src=""images/map05_YlGnBu_scaleRev_orientDef_000.png"" alt=""map"" style=""width: 100%;""><img src=""images/map10_Spectral_scaleDef_orientMir_270.png"" alt=""map"" style=""width: 100%;""><img src=""images/map07_PRGn_scaleRev_orientDef_180.png"" alt=""map"" style=""width: 100%;""><img src=""images/map27_OrRd_scaleDef_orientDef_270.png"" alt=""map"" style=""width: 100%;""><img src=""images/map15_plasma_scaleRev_orientMir_000.png"" alt=""map"" style=""width: 100%;""><img src=""images/map10_RdBu_scaleDef_orientDef_090.png"" alt=""map"" style=""width: 100%;""><img src=""images/map26_Greens_scaleRev_orientDef_180.png"" alt=""map"" style=""width: 100%;""><img src=""images/map13_turbo_scaleDef_orientMir_270.png"" alt=""map"" style=""width: 100%;""><img src=""images/map26_Blues_scaleRev_orientDef_000.png"" alt=""map"" style=""width: 100%;""><img src=""images/map07_RdGy_scaleDef_orientMir_270.png"" alt=""map"" style=""width: 100%;""><img src=""images/map05_PiYG_scaleDef_orientMir_270.png"" alt=""map"" style=""width: 100%;""><img src=""images/map12_seismic_scaleDef_orientMir_090.png"" alt=""map"" style=""width: 100%;""><img src=""images/map05_BuGn_scaleDef_orientDef_270.png"" alt=""map"" style=""width: 100%;""><img src=""images/map10_RdYlGn_scaleRev_orientMir_180.png"" alt=""map"" style=""width: 100%;""><img src=""images/map02_BuPu_scaleDef_orientDef_090.png"" alt=""map"" style=""width: 100%;""><img src=""images/map26_Reds_scaleDef_orientMir_090.png"" alt=""map"" style=""width: 100%;""><img src=""images/map13_berlin_scaleRev_orientDef_000.png"" alt=""map"" style=""width: 100%;""><img src=""images/map13_vanimo_scaleRev_orientMir_000.png"" alt=""map"" style=""width: 100%;""><img src=""images/map07_PuOr_scaleDef_orientMir_090.png"" alt=""map"" style=""width: 100%;""><img src=""images/map13_gist_earth_scaleRev_orientMir_180.png"" alt=""map"" style=""width: 100%;""><img src=""images/map27_YlOrRd_scaleRev_orientDef_180.png"" alt=""map"" style=""width: 100%;""><img src=""images/map26_Oranges_scaleRev_orientMir_000.png"" alt=""map"" style=""width: 100%;""><img src=""images/map15_inferno_scaleDef_orientMir_090.png"" alt=""map"" style=""width: 100%;""><img src=""images/map02_PuBu_scaleRev_orientMir_180.png"" alt=""map"" style=""width: 100%;""><img src=""images/map26_YlOrBr_scaleDef_orientMir_270.png"" alt=""map"" style=""width: 100%;""><img src=""images/map12_coolwarm_scaleRev_orientDef_180.png"" alt=""map"" style=""width: 100%;""><img src=""images/map12_bwr_scaleRev_orientMir_000.png"" alt=""map"" style=""width: 100%;""><img src=""images/map02_GnBu_scaleRev_orientMir_000.png"" alt=""map"" style=""width: 100%;""><img src=""images/map02_RdPu_scaleRev_orientDef_000.png"" alt=""map"" style=""width: 100%;""><img src=""images/map23_cividis_scaleRev_orientDef_180.png"" alt=""map"" style=""width: 100%;""><img src=""images/map13_managua_scaleDef_orientDef_090.png"" alt=""map"" style=""width: 100%;""><img src=""images/map07_BrBG_scaleDef_orientDef_270.png"" alt=""map"" style=""width: 100%;""><img src=""images/map23_Greys_scaleRev_orientMir_000.png"" alt=""map"" style=""width: 100%;""><img src=""images/map23_magma_scaleRev_orientDef_000.png"" alt=""map"" style=""width: 100%;""><img src=""images/map23_Purples_scaleDef_orientMir_090.png"" alt=""map"" style=""width: 100%;""><img src=""images/map15_viridis_scaleRev_orientDef_180.png"" alt=""map"" style=""width: 100%;""><img src=""images/map05_PuBuGn_scaleRev_orientDef_180.png"" alt=""map"" style=""width: 100%;""><img src=""images/map10_RdYlBu_scaleRev_orientMir_000.png"" alt=""map"" style=""width: 100%;""><img src=""images/map05_YlGn_scaleRev_orientMir_180.png"" alt=""map"" style=""width: 100%;"">
                    </div>
                </div>

                    <!-- Clear floats -->
                    <div style=""clear: both;""></div>
                </div>
                            ",0.52,"",0,"true",NA,"","","",NA,NA,NA,"","","","",NA,NA
"","","","","","html-button-response",7,53115,"0.0-7.0","l5b83c4qbl",49,1141,"<div style=""width:800px;""><p style=""text-align:left"">To move the slider, click and drag your cursor to the location of the scale where you would like to make your rating and then let go. When you let go of the slider, your response will be recorded and the next trial will begin. <br>
                    We are interested in your initial impressions of each map for the given concept, so please go with your first intuition. <br>
                    Before you begin the experiment, there will be four training trials for you to practice using the scale. <br>
                     When you are ready to start the training trials, please click ""Continue"".</p><br></div>",0.5,"",NA,"",NA,"","","",NA,NA,NA,"","","","",NA,NA
"","","","","","html-slider-response",8,55887,"0.0-8.0-0.0","l5b83c4qbl",49,NA,"<div style=""width:500px;"">
                                    <p style=""font-size:25px;"">Please move the slider all the way to the <br> right endpoint of the scale</p>

                                    </div>
                                </div>",1,"",0,"true",0,"true","","",NA,NA,NA,"","","","",NA,NA
"","","","","","html-button-response",9,57415,"0.0-8.0-1.0","l5b83c4qbl",49,1025,"<p align='center'><b>Good job!</b> Click on 'Continue' to proceed.</p>",0.5,"",NA,"",NA,"","","",NA,NA,NA,"","","","",NA,NA
"","","","","","html-slider-response",10,58528,"0.0-9.0-0.0","l5b83c4qbl",49,NA,"<div style=""width:500px;"">
                                    <p style=""font-size:25px;"">Please move the slider all the way to the <br> left endpoint of the scale</p>

                                    </div>
                                </div>",0,"",0,"true",1,"true","","",NA,NA,NA,"","","","",NA,NA
"","","","","","html-button-response",11,59758,"0.0-9.0-1.0","l5b83c4qbl",49,727,"<p align='center'><b>Good job!</b> Click on 'Continue' to proceed.</p>",0.5,"",NA,"",NA,"","","",NA,NA,NA,"","","","",NA,NA
"","","","","","html-slider-response",12,64872,"0.0-10.0-0.0","l5b83c4qbl",49,NA,"<div style=""width:500px;"">
                                    <p style=""font-size:25px;"">Please move the slider halfway between the center and right endpoint of the scale</p>

                                    </div>
                                </div>",0.77,"",0,"true",2,"true","","",NA,NA,NA,"","","","",NA,NA
"","","","","","html-button-response",13,66304,"0.0-10.0-1.0","l5b83c4qbl",49,928,"<p align='center'><b>Good job!</b> Click on 'Continue' to proceed.</p>",0.5,"",NA,"",NA,"","","",NA,NA,NA,"","","","",NA,NA
"","","","","","html-slider-response",14,68169,"0.0-11.0-0.0","l5b83c4qbl",49,NA,"<div style=""width:500px;"">
                                    <p style=""font-size:25px;"">Please move the slider halfway between the center and left endpoint of the scale</p>

                                    </div>
                                </div>",0.2175,"",0,"true",3,"false","","",NA,NA,NA,"","","","",NA,NA
"","","","","","html-button-response",15,71804,"0.0-11.0-1.0","l5b83c4qbl",49,3133,"<p align='center'><b>Not quite!</b> The slider was not placed near the instructed located. Click on 'Continue' to try again. </p>",0.5,"",NA,"",NA,"","","",NA,NA,NA,"","","","",NA,NA
"","","","","","html-slider-response",16,74583,"0.0-11.1-0.1","l5b83c4qbl",49,NA,"<div style=""width:500px;"">
                                    <p style=""font-size:25px;"">Please move the slider halfway between the center and left endpoint of the scale</p>

                                    </div>
                                </div>",0.225,"",0,"true",3,"true","","",NA,NA,NA,"","","","",NA,NA
"","","","","","html-button-response",17,75999,"0.0-11.1-1.1","l5b83c4qbl",49,913,"<p align='center'><b>Good job!</b> Click on 'Continue' to proceed.</p>",0.5,"",NA,"",NA,"","","",NA,NA,NA,"","","","",NA,NA
"","","","","","html-button-response",18,77376,"0.0-12.0","l5b83c4qbl",49,1376,"<p>Great job! You've completed the practice trials. Now you will begin the main task.</p>",0.5,"",NA,"",NA,"","","",NA,NA,NA,"","","","",NA,NA
"","","","","","html-button-response",19,81894,"0.0-13.0","l5b83c4qbl",49,4516,"<p>In this block of trials, you will be asked to rate how much you associate each map with:</p > <p style = 'font-size:150%; font-weight: bold'>sad</p><br></br>",0.5,"",NA,"",NA,"","","",NA,NA,NA,"","","","",NA,NA
"","","","","","html-slider-response",20,88838,"0.0-14.0","l5b83c4qbl",49,NA,"<div style=""width:500px;"">
                            <p style=""font-size:50px; font-weight:bold;""
                            >sad</p>
                            <div style=""width:240px; margin: auto;"">
                                <img src=""images/map05_PuBuGn_scaleRev_orientDef_180.png"" style= ""width:200px""alt=""img"">
                            </div>
                        </div>",0.84,"",0,"",NA,"","images/map05_PuBuGn_scaleRev_orientDef_180.png","sad",1,5,5,"PuBuGn","orientDef","scaleRev","180",NA,NA
"","","","","","html-slider-response",21,91736,"0.0-15.0","l5b83c4qbl",49,NA,"<div style=""width:500px;"">
                            <p style=""font-size:50px; font-weight:bold;""
                            >sad</p>
                            <div style=""width:240px; margin: auto;"">
                                <img src=""images/map12_seismic_scaleDef_orientMir_090.png"" style= ""width:200px""alt=""img"">
                            </div>
                        </div>",0.8475,"",0,"",NA,"","images/map12_seismic_scaleDef_orientMir_090.png","sad",1,12,12,"seismic","orientMir","scaleDef","090",NA,NA
"","","","","","html-slider-response",22,94732,"0.0-16.0","l5b83c4qbl",49,NA,"<div style=""width:500px;"">
                            <p style=""font-size:50px; font-weight:bold;""
                            >sad</p>
                            <div style=""width:240px; margin: auto;"">
                                <img src=""images/map12_seismic_scaleRev_orientMir_180.png"" style= ""width:200px""alt=""img"">
                            </div>
                        </div>",0.7925,"",0,"",NA,"","images/map12_seismic_scaleRev_orientMir_180.png","sad",1,12,12,"seismic","orientMir","scaleRev","180",NA,NA
"","","","","","html-slider-response",23,98544,"0.0-17.0","l5b83c4qbl",49,NA,"<div style=""width:500px;"">
                            <p style=""font-size:50px; font-weight:bold;""
                            >sad</p>
                            <div style=""width:240px; margin: auto;"">
                                <img src=""images/map27_PuRd_scaleRev_orientMir_180.png"" style= ""width:200px""alt=""img"">
                            </div>
                        </div>",0,"",0,"",NA,"","images/map27_PuRd_scaleRev_orientMir_180.png","sad",1,27,27,"PuRd","orientMir","scaleRev","180",NA,NA
"","","","","","html-slider-response",24,101769,"0.0-18.0","l5b83c4qbl",49,NA,"<div style=""width:500px;"">
                            <p style=""font-size:50px; font-weight:bold;""
                            >sad</p>
                            <div style=""width:240px; margin: auto;"">
                                <img src=""images/map12_berlin_scaleDef_orientMir_270.png"" style= ""width:200px""alt=""img"">
                            </div>
                        </div>",0.265,"",0,"",NA,"","images/map12_berlin_scaleDef_orientMir_270.png","sad",1,12,12,"berlin","orientMir","scaleDef","270",NA,NA
"","","","","","html-slider-response",25,103788,"0.0-19.0","l5b83c4qbl",49,NA,"<div style=""width:500px;"">
                            <p style=""font-size:50px; font-weight:bold;""
                            >sad</p>
                            <div style=""width:240px; margin: auto;"">
                                <img src=""images/map13_managua_scaleRev_orientDef_180.png"" style= ""width:200px""alt=""img"">
                            </div>
                        </div>",0.1525,"",0,"",NA,"","images/map13_managua_scaleRev_orientDef_180.png","sad",1,13,13,"managua","orientDef","scaleRev","180",NA,NA
"","","","","","html-slider-response",26,106486,"0.0-20.0","l5b83c4qbl",49,NA,"<div style=""width:500px;"">
                            <p style=""font-size:50px; font-weight:bold;""
                            >sad</p>
                            <div style=""width:240px; margin: auto;"">
                                <img src=""images/map07_RdGy_scaleDef_orientMir_270.png"" style= ""width:200px""alt=""img"">
                            </div>
                        </div>",0.24,"",0,"",NA,"","images/map07_RdGy_scaleDef_orientMir_270.png","sad",1,7,7,"RdGy","orientMir","scaleDef","270",NA,NA
"","","","","","html-slider-response",27,109510,"0.0-21.0","l5b83c4qbl",49,NA,"<div style=""width:500px;"">
                            <p style=""font-size:50px; font-weight:bold;""
                            >sad</p>
                            <div style=""width:240px; margin: auto;"">
                                <img src=""images/map26_Reds_scaleRev_orientMir_180.png"" style= ""width:200px""alt=""img"">
                            </div>
                        </div>",0.205,"",0,"",NA,"","images/map26_Reds_scaleRev_orientMir_180.png","sad",1,26,26,"Reds","orientMir","scaleRev","180",NA,NA
"","","","","","html-slider-response",28,111095,"0.0-22.0","l5b83c4qbl",49,NA,"<div style=""width:500px;"">
                            <p style=""font-size:50px; font-weight:bold;""
                            >sad</p>
                            <div style=""width:240px; margin: auto;"">
                                <img src=""images/map07_PiYG_scaleRev_orientDef_000.png"" style= ""width:200px""alt=""img"">
                            </div>
                        </div>",0.155,"",0,"",NA,"","images/map07_PiYG_scaleRev_orientDef_000.png","sad",1,7,7,"PiYG","orientDef","scaleRev","000",NA,NA
"","","","","","html-slider-response",29,112728,"0.0-23.0","l5b83c4qbl",49,NA,"<div style=""width:500px;"">
                            <p style=""font-size:50px; font-weight:bold;""
                            >sad</p>
                            <div style=""width:240px; margin: auto;"">
                                <img src=""images/map13_vanimo_scaleDef_orientDef_270.png"" style= ""width:200px""alt=""img"">
                            </div>
                        </div>",0,"",0,"",NA,"","images/map13_vanimo_scaleDef_orientDef_270.png","sad",1,13,13,"vanimo","orientDef","scaleDef","270",NA,NA
"","","","","","html-slider-response",30,114321,"0.0-24.0","l5b83c4qbl",49,NA,"<div style=""width:500px;"">
                            <p style=""font-size:50px; font-weight:bold;""
                            >sad</p>
                            <div style=""width:240px; margin: auto;"">
                                <img src=""images/map05_PiYG_scaleDef_orientMir_270.png"" style= ""width:200px""alt=""img"">
                            </div>
                        </div>",0.235,"",0,"",NA,"","images/map05_PiYG_scaleDef_orientMir_270.png","sad",1,5,5,"PiYG","orientMir","scaleDef","270",NA,NA
"","","","","","html-slider-response",31,116352,"0.0-25.0","l5b83c4qbl",49,NA,"<div style=""width:500px;"">
                            <p style=""font-size:50px; font-weight:bold;""
                            >sad</p>
                            <div style=""width:240px; margin: auto;"">
                                <img src=""images/map02_GnBu_scaleDef_orientDef_270.png"" style= ""width:200px""alt=""img"">
                            </div>
                        </div>",0.625,"",0,"",NA,"","images/map02_GnBu_scaleDef_orientDef_270.png","sad",1,2,2,"GnBu","orientDef","scaleDef","270",NA,NA
"","","","","","html-slider-response",32,118169,"0.0-26.0","l5b83c4qbl",49,NA,"<div style=""width:500px;"">
                            <p style=""font-size:50px; font-weight:bold;""
                            >sad</p>
                            <div style=""width:240px; margin: auto;"">
                                <img src=""images/map13_gist_earth_scaleDef_orientMir_090.png"" style= ""width:200px""alt=""img"">
                            </div>
                        </div>",0.4225,"",0,"",NA,"","images/map13_gist_earth_scaleDef_orientMir_090.png","sad",1,13,13,"gist","scaleDef","earth","orientMir",NA,NA
"","","","","","html-slider-response",33,119527,"0.0-27.0","l5b83c4qbl",49,NA,"<div style=""width:500px;"">
                            <p style=""font-size:50px; font-weight:bold;""
                            >sad</p>
                            <div style=""width:240px; margin: auto;"">
                                <img src=""images/map12_Spectral_scaleRev_orientDef_000.png"" style= ""width:200px""alt=""img"">
                            </div>
                        </div>",0.36,"",0,"",NA,"","images/map12_Spectral_scaleRev_orientDef_000.png","sad",1,12,12,"Spectral","orientDef","scaleRev","000",NA,NA
"","","","","","html-slider-response",34,122187,"0.0-28.0","l5b83c4qbl",49,NA,"<div style=""width:500px;"">
                            <p style=""font-size:50px; font-weight:bold;""
                            >sad</p>
                            <div style=""width:240px; margin: auto;"">
                                <img src=""images/map23_Greys_scaleRev_orientMir_000.png"" style= ""width:200px""alt=""img"">
                            </div>
                        </div>",0.64,"",0,"",NA,"","images/map23_Greys_scaleRev_orientMir_000.png","sad",1,23,23,"Greys","orientMir","scaleRev","000",NA,NA
"","","","","","html-slider-response",35,123885,"0.0-29.0","l5b83c4qbl",49,NA,"<div style=""width:500px;"">
                            <p style=""font-size:50px; font-weight:bold;""
                            >sad</p>
                            <div style=""width:240px; margin: auto;"">
                                <img src=""images/map07_PuOr_scaleDef_orientMir_090.png"" style= ""width:200px""alt=""img"">
                            </div>
                        </div>",0.3175,"",0,"",NA,"","images/map07_PuOr_scaleDef_orientMir_090.png","sad",1,7,7,"PuOr","orientMir","scaleDef","090",NA,NA
"","","","","","html-slider-response",36,126006,"0.0-30.0","l5b83c4qbl",49,NA,"<div style=""width:500px;"">
                            <p style=""font-size:50px; font-weight:bold;""
                            >sad</p>
                            <div style=""width:240px; margin: auto;"">
                                <img src=""images/map10_RdYlBu_scaleDef_orientDef_270.png"" style= ""width:200px""alt=""img"">
                            </div>
                        </div>",0.2725,"",0,"",NA,"","images/map10_RdYlBu_scaleDef_orientDef_270.png","sad",1,10,10,"RdYlBu","orientDef","scaleDef","270",NA,NA
"","","","","","html-slider-response",37,129405,"0.0-31.0","l5b83c4qbl",49,NA,"<div style=""width:500px;"">
                            <p style=""font-size:50px; font-weight:bold;""
                            >sad</p>
                            <div style=""width:240px; margin: auto;"">
                                <img src=""images/map02_RdPu_scaleRev_orientDef_000.png"" style= ""width:200px""alt=""img"">
                            </div>
                        </div>",0.42,"",0,"",NA,"","images/map02_RdPu_scaleRev_orientDef_000.png","sad",1,2,2,"RdPu","orientDef","scaleRev","000",NA,NA
"","","","","","html-slider-response",38,131546,"0.0-32.0","l5b83c4qbl",49,NA,"<div style=""width:500px;"">
                            <p style=""font-size:50px; font-weight:bold;""
                            >sad</p>
                            <div style=""width:240px; margin: auto;"">
                                <img src=""images/map10_RdYlBu_scaleRev_orientMir_000.png"" style= ""width:200px""alt=""img"">
                            </div>
                        </div>",0.285,"",0,"",NA,"","images/map10_RdYlBu_scaleRev_orientMir_000.png","sad",1,10,10,"RdYlBu","orientMir","scaleRev","000",NA,NA
"","","","","","html-slider-response",39,134010,"0.0-33.0","l5b83c4qbl",49,NA,"<div style=""width:500px;"">
                            <p style=""font-size:50px; font-weight:bold;""
                            >sad</p>
                            <div style=""width:240px; margin: auto;"">
                                <img src=""images/map23_magma_scaleRev_orientDef_000.png"" style= ""width:200px""alt=""img"">
                            </div>
                        </div>",0.46,"",0,"",NA,"","images/map23_magma_scaleRev_orientDef_000.png","sad",1,23,23,"magma","orientDef","scaleRev","000",NA,NA
"","","","","","html-slider-response",40,138487,"0.0-34.0","l5b83c4qbl",49,NA,"<div style=""width:500px;"">
                            <p style=""font-size:50px; font-weight:bold;""
                            >sad</p>
                            <div style=""width:240px; margin: auto;"">
                                <img src=""images/map02_GnBu_scaleRev_orientMir_000.png"" style= ""width:200px""alt=""img"">
                            </div>
                        </div>",0.6725,"",0,"",NA,"","images/map02_GnBu_scaleRev_orientMir_000.png","sad",1,2,2,"GnBu","orientMir","scaleRev","000",NA,NA
"","","","","","html-slider-response",41,139969,"0.0-35.0","l5b83c4qbl",49,NA,"<div style=""width:500px;"">
                            <p style=""font-size:50px; font-weight:bold;""
                            >sad</p>
                            <div style=""width:240px; margin: auto;"">
                                <img src=""images/map27_PuRd_scaleDef_orientMir_090.png"" style= ""width:200px""alt=""img"">
                            </div>
                        </div>",0.335,"",0,"",NA,"","images/map27_PuRd_scaleDef_orientMir_090.png","sad",1,27,27,"PuRd","orientMir","scaleDef","090",NA,NA
"","","","","","html-slider-response",42,141653,"0.0-36.0","l5b83c4qbl",49,NA,"<div style=""width:500px;"">
                            <p style=""font-size:50px; font-weight:bold;""
                            >sad</p>
                            <div style=""width:240px; margin: auto;"">
                                <img src=""images/map15_plasma_scaleRev_orientMir_000.png"" style= ""width:200px""alt=""img"">
                            </div>
                        </div>",0.16,"",0,"",NA,"","images/map15_plasma_scaleRev_orientMir_000.png","sad",1,15,15,"plasma","orientMir","scaleRev","000",NA,NA
"","","","","","html-slider-response",43,143236,"0.0-37.0","l5b83c4qbl",49,NA,"<div style=""width:500px;"">
                            <p style=""font-size:50px; font-weight:bold;""
                            >sad</p>
                            <div style=""width:240px; margin: auto;"">
                                <img src=""images/map13_gist_earth_scaleRev_orientMir_180.png"" style= ""width:200px""alt=""img"">
                            </div>
                        </div>",0.1825,"",0,"",NA,"","images/map13_gist_earth_scaleRev_orientMir_180.png","sad",1,13,13,"gist","scaleRev","earth","orientMir",NA,NA
"","","","","","html-slider-response",44,144928,"0.0-38.0","l5b83c4qbl",49,NA,"<div style=""width:500px;"">
                            <p style=""font-size:50px; font-weight:bold;""
                            >sad</p>
                            <div style=""width:240px; margin: auto;"">
                                <img src=""images/map27_YlOrRd_scaleRev_orientDef_180.png"" style= ""width:200px""alt=""img"">
                            </div>
                        </div>",0.135,"",0,"",NA,"","images/map27_YlOrRd_scaleRev_orientDef_180.png","sad",1,27,27,"YlOrRd","orientDef","scaleRev","180",NA,NA
"","","","","","html-slider-response",45,146922,"0.0-39.0","l5b83c4qbl",49,NA,"<div style=""width:500px;"">
                            <p style=""font-size:50px; font-weight:bold;""
                            >sad</p>
                            <div style=""width:240px; margin: auto;"">
                                <img src=""images/map07_PuOr_scaleRev_orientMir_180.png"" style= ""width:200px""alt=""img"">
                            </div>
                        </div>",0.27,"",0,"",NA,"","images/map07_PuOr_scaleRev_orientMir_180.png","sad",1,7,7,"PuOr","orientMir","scaleRev","180",NA,NA
"","","","","","html-slider-response",46,148760,"0.0-40.0","l5b83c4qbl",49,NA,"<div style=""width:500px;"">
                            <p style=""font-size:50px; font-weight:bold;""
                            >sad</p>
                            <div style=""width:240px; margin: auto;"">
                                <img src=""images/map15_turbo_scaleRev_orientDef_000.png"" style= ""width:200px""alt=""img"">
                            </div>
                        </div>",0.4025,"",0,"",NA,"","images/map15_turbo_scaleRev_orientDef_000.png","sad",1,15,15,"turbo","orientDef","scaleRev","000",NA,NA
"","","","","","html-slider-response",47,151453,"0.0-41.0","l5b83c4qbl",49,NA,"<div style=""width:500px;"">
                            <p style=""font-size:50px; font-weight:bold;""
                            >sad</p>
                            <div style=""width:240px; margin: auto;"">
                                <img src=""images/map23_Purples_scaleRev_orientMir_180.png"" style= ""width:200px""alt=""img"">
                            </div>
                        </div>",0.675,"",0,"",NA,"","images/map23_Purples_scaleRev_orientMir_180.png","sad",1,23,23,"Purples","orientMir","scaleRev","180",NA,NA
"","","","","","html-slider-response",48,153503,"0.0-42.0","l5b83c4qbl",49,NA,"<div style=""width:500px;"">
                            <p style=""font-size:50px; font-weight:bold;""
                            >sad</p>
                            <div style=""width:240px; margin: auto;"">
                                <img src=""images/map23_Greys_scaleDef_orientDef_270.png"" style= ""width:200px""alt=""img"">
                            </div>
                        </div>",0.6175,"",0,"",NA,"","images/map23_Greys_scaleDef_orientDef_270.png","sad",1,23,23,"Greys","orientDef","scaleDef","270",NA,NA
"","","","","","html-slider-response",49,155411,"0.0-43.0","l5b83c4qbl",49,NA,"<div style=""width:500px;"">
                            <p style=""font-size:50px; font-weight:bold;""
                            >sad</p>
                            <div style=""width:240px; margin: auto;"">
                                <img src=""images/map23_Purples_scaleDef_orientMir_090.png"" style= ""width:200px""alt=""img"">
                            </div>
                        </div>",0.655,"",0,"",NA,"","images/map23_Purples_scaleDef_orientMir_090.png","sad",1,23,23,"Purples","orientMir","scaleDef","090",NA,NA
"","","","","","html-slider-response",50,159170,"0.0-44.0","l5b83c4qbl",49,NA,"<div style=""width:500px;"">
                            <p style=""font-size:50px; font-weight:bold;""
                            >sad</p>
                            <div style=""width:240px; margin: auto;"">
                                <img src=""images/map05_BuGn_scaleDef_orientDef_270.png"" style= ""width:200px""alt=""img"">
                            </div>
                        </div>",0.225,"",0,"",NA,"","images/map05_BuGn_scaleDef_orientDef_270.png","sad",1,5,5,"BuGn","orientDef","scaleDef","270",NA,NA
"","","","","","html-slider-response",51,161227,"0.0-45.0","l5b83c4qbl",49,NA,"<div style=""width:500px;"">
                            <p style=""font-size:50px; font-weight:bold;""
                            >sad</p>
                            <div style=""width:240px; margin: auto;"">
                                <img src=""images/map12_coolwarm_scaleRev_orientDef_180.png"" style= ""width:200px""alt=""img"">
                            </div>
                        </div>",0.17,"",0,"",NA,"","images/map12_coolwarm_scaleRev_orientDef_180.png","sad",1,12,12,"coolwarm","orientDef","scaleRev","180",NA,NA
"","","","","","html-slider-response",52,163045,"0.0-46.0","l5b83c4qbl",49,NA,"<div style=""width:500px;"">
                            <p style=""font-size:50px; font-weight:bold;""
                            >sad</p>
                            <div style=""width:240px; margin: auto;"">
                                <img src=""images/map07_BrBG_scaleDef_orientDef_270.png"" style= ""width:200px""alt=""img"">
                            </div>
                        </div>",0.025,"",0,"",NA,"","images/map07_BrBG_scaleDef_orientDef_270.png","sad",1,7,7,"BrBG","orientDef","scaleDef","270",NA,NA
"","","","","","html-slider-response",53,164364,"0.0-47.0","l5b83c4qbl",49,NA,"<div style=""width:500px;"">
                            <p style=""font-size:50px; font-weight:bold;""
                            >sad</p>
                            <div style=""width:240px; margin: auto;"">
                                <img src=""images/map15_plasma_scaleDef_orientDef_270.png"" style= ""width:200px""alt=""img"">
                            </div>
                        </div>",0.145,"",0,"",NA,"","images/map15_plasma_scaleDef_orientDef_270.png","sad",1,15,15,"plasma","orientDef","scaleDef","270",NA,NA
"","","","","","html-slider-response",54,166522,"0.0-48.0","l5b83c4qbl",49,NA,"<div style=""width:500px;"">
                            <p style=""font-size:50px; font-weight:bold;""
                            >sad</p>
                            <div style=""width:240px; margin: auto;"">
                                <img src=""images/map12_bwr_scaleDef_orientDef_270.png"" style= ""width:200px""alt=""img"">
                            </div>
                        </div>",0.2125,"",0,"",NA,"","images/map12_bwr_scaleDef_orientDef_270.png","sad",1,12,12,"bwr","orientDef","scaleDef","270",NA,NA
"","","","","","html-slider-response",55,168407,"0.0-49.0","l5b83c4qbl",49,NA,"<div style=""width:500px;"">
                            <p style=""font-size:50px; font-weight:bold;""
                            >sad</p>
                            <div style=""width:240px; margin: auto;"">
                                <img src=""images/map27_RdPu_scaleDef_orientMir_270.png"" style= ""width:200px""alt=""img"">
                            </div>
                        </div>",0.2375,"",0,"",NA,"","images/map27_RdPu_scaleDef_orientMir_270.png","sad",1,27,27,"RdPu","orientMir","scaleDef","270",NA,NA
"","","","","","html-slider-response",56,170830,"0.0-50.0","l5b83c4qbl",49,NA,"<div style=""width:500px;"">
                            <p style=""font-size:50px; font-weight:bold;""
                            >sad</p>
                            <div style=""width:240px; margin: auto;"">
                                <img src=""images/map07_BrBG_scaleRev_orientMir_000.png"" style= ""width:200px""alt=""img"">
                            </div>
                        </div>",0.195,"",0,"",NA,"","images/map07_BrBG_scaleRev_orientMir_000.png","sad",1,7,7,"BrBG","orientMir","scaleRev","000",NA,NA
"","","","","","html-slider-response",57,172352,"0.0-51.0","l5b83c4qbl",49,NA,"<div style=""width:500px;"">
                            <p style=""font-size:50px; font-weight:bold;""
                            >sad</p>
                            <div style=""width:240px; margin: auto;"">
                                <img src=""images/map10_RdBu_scaleDef_orientDef_090.png"" style= ""width:200px""alt=""img"">
                            </div>
                        </div>",0.145,"",0,"",NA,"","images/map10_RdBu_scaleDef_orientDef_090.png","sad",1,10,10,"RdBu","orientDef","scaleDef","090",NA,NA
"","","","","","html-slider-response",58,175065,"0.0-52.0","l5b83c4qbl",49,NA,"<div style=""width:500px;"">
                            <p style=""font-size:50px; font-weight:bold;""
                            >sad</p>
                            <div style=""width:240px; margin: auto;"">
                                <img src=""images/map26_Oranges_scaleRev_orientMir_000.png"" style= ""width:200px""alt=""img"">
                            </div>
                        </div>",0.075,"",0,"",NA,"","images/map26_Oranges_scaleRev_orientMir_000.png","sad",1,26,26,"Oranges","orientMir","scaleRev","000",NA,NA
"","","","","","html-slider-response",59,176498,"0.0-53.0","l5b83c4qbl",49,NA,"<div style=""width:500px;"">
                            <p style=""font-size:50px; font-weight:bold;""
                            >sad</p>
                            <div style=""width:240px; margin: auto;"">
                                <img src=""images/map26_Oranges_scaleDef_orientDef_270.png"" style= ""width:200px""alt=""img"">
                            </div>
                        </div>",0.0225,"",0,"",NA,"","images/map26_Oranges_scaleDef_orientDef_270.png","sad",1,26,26,"Oranges","orientDef","scaleDef","270",NA,NA
"","","","","","html-button-response",60,178323,"0.0-54.0","l5b83c4qbl",49,1322,"<p>You are doing great!<br></br> You are halway done with the current block. When you are ready to continue, click the 'Continue' button.</p>",0.5,"",NA,"",NA,"","","",NA,NA,NA,"","","","",NA,NA
"","","","","","html-slider-response",61,180710,"0.0-55.0","l5b83c4qbl",49,NA,"<div style=""width:500px;"">
                            <p style=""font-size:50px; font-weight:bold;""
                            >sad</p>
                            <div style=""width:240px; margin: auto;"">
                                <img src=""images/map05_BuGn_scaleRev_orientMir_000.png"" style= ""width:200px""alt=""img"">
                            </div>
                        </div>",0.265,"",0,"",NA,"","images/map05_BuGn_scaleRev_orientMir_000.png","sad",1,5,5,"BuGn","orientMir","scaleRev","000",NA,NA
"","","","","","html-slider-response",62,181997,"0.0-56.0","l5b83c4qbl",49,NA,"<div style=""width:500px;"">
                            <p style=""font-size:50px; font-weight:bold;""
                            >sad</p>
                            <div style=""width:240px; margin: auto;"">
                                <img src=""images/map26_YlOrBr_scaleDef_orientMir_270.png"" style= ""width:200px""alt=""img"">
                            </div>
                        </div>",0.255,"",0,"",NA,"","images/map26_YlOrBr_scaleDef_orientMir_270.png","sad",1,26,26,"YlOrBr","orientMir","scaleDef","270",NA,NA
"","","","","","html-slider-response",63,183236,"0.0-57.0","l5b83c4qbl",49,NA,"<div style=""width:500px;"">
                            <p style=""font-size:50px; font-weight:bold;""
                            >sad</p>
                            <div style=""width:240px; margin: auto;"">
                                <img src=""images/map26_Greens_scaleDef_orientDef_090.png"" style= ""width:200px""alt=""img"">
                            </div>
                        </div>",0.2475,"",0,"",NA,"","images/map26_Greens_scaleDef_orientDef_090.png","sad",1,26,26,"Greens","orientDef","scaleDef","090",NA,NA
"","","","","","html-slider-response",64,185200,"0.0-58.0","l5b83c4qbl",49,NA,"<div style=""width:500px;"">
                            <p style=""font-size:50px; font-weight:bold;""
                            >sad</p>
                            <div style=""width:240px; margin: auto;"">
                                <img src=""images/map02_YlGnBu_scaleDef_orientMir_270.png"" style= ""width:200px""alt=""img"">
                            </div>
                        </div>",0.5925,"",0,"",NA,"","images/map02_YlGnBu_scaleDef_orientMir_270.png","sad",1,2,2,"YlGnBu","orientMir","scaleDef","270",NA,NA
"","","","","","html-slider-response",65,186884,"0.0-59.0","l5b83c4qbl",49,NA,"<div style=""width:500px;"">
                            <p style=""font-size:50px; font-weight:bold;""
                            >sad</p>
                            <div style=""width:240px; margin: auto;"">
                                <img src=""images/map12_coolwarm_scaleDef_orientDef_090.png"" style= ""width:200px""alt=""img"">
                            </div>
                        </div>",0.245,"",0,"",NA,"","images/map12_coolwarm_scaleDef_orientDef_090.png","sad",1,12,12,"coolwarm","orientDef","scaleDef","090",NA,NA
"","","","","","html-slider-response",66,188244,"0.0-60.0","l5b83c4qbl",49,NA,"<div style=""width:500px;"">
                            <p style=""font-size:50px; font-weight:bold;""
                            >sad</p>
                            <div style=""width:240px; margin: auto;"">
                                <img src=""images/map12_bwr_scaleRev_orientMir_000.png"" style= ""width:200px""alt=""img"">
                            </div>
                        </div>",0.185,"",0,"",NA,"","images/map12_bwr_scaleRev_orientMir_000.png","sad",1,12,12,"bwr","orientMir","scaleRev","000",NA,NA
"","","","","","html-slider-response",67,189469,"0.0-61.0","l5b83c4qbl",49,NA,"<div style=""width:500px;"">
                            <p style=""font-size:50px; font-weight:bold;""
                            >sad</p>
                            <div style=""width:240px; margin: auto;"">
                                <img src=""images/map07_PRGn_scaleRev_orientDef_180.png"" style= ""width:200px""alt=""img"">
                            </div>
                        </div>",0.185,"",0,"",NA,"","images/map07_PRGn_scaleRev_orientDef_180.png","sad",1,7,7,"PRGn","orientDef","scaleRev","180",NA,NA
"","","","","","html-slider-response",68,191054,"0.0-62.0","l5b83c4qbl",49,NA,"<div style=""width:500px;"">
                            <p style=""font-size:50px; font-weight:bold;""
                            >sad</p>
                            <div style=""width:240px; margin: auto;"">
                                <img src=""images/map27_YlOrRd_scaleDef_orientDef_090.png"" style= ""width:200px""alt=""img"">
                            </div>
                        </div>",0.185,"",0,"",NA,"","images/map27_YlOrRd_scaleDef_orientDef_090.png","sad",1,27,27,"YlOrRd","orientDef","scaleDef","090",NA,NA
"","","","","","html-slider-response",69,192584,"0.0-63.0","l5b83c4qbl",49,NA,"<div style=""width:500px;"">
                            <p style=""font-size:50px; font-weight:bold;""
                            >sad</p>
                            <div style=""width:240px; margin: auto;"">
                                <img src=""images/map15_viridis_scaleDef_orientDef_090.png"" style= ""width:200px""alt=""img"">
                            </div>
                        </div>",0.185,"",0,"",NA,"","images/map15_viridis_scaleDef_orientDef_090.png","sad",1,15,15,"viridis","orientDef","scaleDef","090",NA,NA
"","","","","","html-slider-response",70,194339,"0.0-64.0","l5b83c4qbl",49,NA,"<div style=""width:500px;"">
                            <p style=""font-size:50px; font-weight:bold;""
                            >sad</p>
                            <div style=""width:240px; margin: auto;"">
                                <img src=""images/map27_YlOrBr_scaleRev_orientDef_000.png"" style= ""width:200px""alt=""img"">
                            </div>
                        </div>",0.125,"",0,"",NA,"","images/map27_YlOrBr_scaleRev_orientDef_000.png","sad",1,27,27,"YlOrBr","orientDef","scaleRev","000",NA,NA
"","","","","","html-slider-response",71,195773,"0.0-65.0","l5b83c4qbl",49,NA,"<div style=""width:500px;"">
                            <p style=""font-size:50px; font-weight:bold;""
                            >sad</p>
                            <div style=""width:240px; margin: auto;"">
                                <img src=""images/map15_inferno_scaleDef_orientMir_090.png"" style= ""width:200px""alt=""img"">
                            </div>
                        </div>",0.035,"",0,"",NA,"","images/map15_inferno_scaleDef_orientMir_090.png","sad",1,15,15,"inferno","orientMir","scaleDef","090",NA,NA
"","","","","","html-slider-response",72,198471,"0.0-66.0","l5b83c4qbl",49,NA,"<div style=""width:500px;"">
                            <p style=""font-size:50px; font-weight:bold;""
                            >sad</p>
                            <div style=""width:240px; margin: auto;"">
                                <img src=""images/map26_Blues_scaleRev_orientDef_000.png"" style= ""width:200px""alt=""img"">
                            </div>
                        </div>",0.905,"",0,"",NA,"","images/map26_Blues_scaleRev_orientDef_000.png","sad",1,26,26,"Blues","orientDef","scaleRev","000",NA,NA
"","","","","","html-slider-response",73,200602,"0.0-67.0","l5b83c4qbl",49,NA,"<div style=""width:500px;"">
                            <p style=""font-size:50px; font-weight:bold;""
                            >sad</p>
                            <div style=""width:240px; margin: auto;"">
                                <img src=""images/map05_PuBuGn_scaleDef_orientDef_090.png"" style= ""width:200px""alt=""img"">
                            </div>
                        </div>",0.635,"",0,"",NA,"","images/map05_PuBuGn_scaleDef_orientDef_090.png","sad",1,5,5,"PuBuGn","orientDef","scaleDef","090",NA,NA
"","","","","","html-slider-response",74,203960,"0.0-68.0","l5b83c4qbl",49,NA,"<div style=""width:500px;"">
                            <p style=""font-size:50px; font-weight:bold;""
                            >sad</p>
                            <div style=""width:240px; margin: auto;"">
                                <img src=""images/map23_cividis_scaleRev_orientDef_180.png"" style= ""width:200px""alt=""img"">
                            </div>
                        </div>",0.5525,"",0,"",NA,"","images/map23_cividis_scaleRev_orientDef_180.png","sad",1,23,23,"cividis","orientDef","scaleRev","180",NA,NA
"","","","","","html-slider-response",75,207948,"0.0-69.0","l5b83c4qbl",49,NA,"<div style=""width:500px;"">
                            <p style=""font-size:50px; font-weight:bold;""
                            >sad</p>
                            <div style=""width:240px; margin: auto;"">
                                <img src=""images/map23_Blues_scaleDef_orientMir_270.png"" style= ""width:200px""alt=""img"">
                            </div>
                        </div>",0.705,"",0,"",NA,"","images/map23_Blues_scaleDef_orientMir_270.png","sad",1,23,23,"Blues","orientMir","scaleDef","270",NA,NA
"","","","","","html-slider-response",76,209848,"0.0-70.0","l5b83c4qbl",49,NA,"<div style=""width:500px;"">
                            <p style=""font-size:50px; font-weight:bold;""
                            >sad</p>
                            <div style=""width:240px; margin: auto;"">
                                <img src=""images/map15_magma_scaleDef_orientMir_270.png"" style= ""width:200px""alt=""img"">
                            </div>
                        </div>",0.13,"",0,"",NA,"","images/map15_magma_scaleDef_orientMir_270.png","sad",1,15,15,"magma","orientMir","scaleDef","270",NA,NA
"","","","","","html-slider-response",77,211564,"0.0-71.0","l5b83c4qbl",49,NA,"<div style=""width:500px;"">
                            <p style=""font-size:50px; font-weight:bold;""
                            >sad</p>
                            <div style=""width:240px; margin: auto;"">
                                <img src=""images/map27_OrRd_scaleDef_orientDef_270.png"" style= ""width:200px""alt=""img"">
                            </div>
                        </div>",0.045,"",0,"",NA,"","images/map27_OrRd_scaleDef_orientDef_270.png","sad",1,27,27,"OrRd","orientDef","scaleDef","270",NA,NA
"","","","","","html-slider-response",78,213350,"0.0-72.0","l5b83c4qbl",49,NA,"<div style=""width:500px;"">
                            <p style=""font-size:50px; font-weight:bold;""
                            >sad</p>
                            <div style=""width:240px; margin: auto;"">
                                <img src=""images/map02_PuBu_scaleDef_orientMir_090.png"" style= ""width:200px""alt=""img"">
                            </div>
                        </div>",0.785,"",0,"",NA,"","images/map02_PuBu_scaleDef_orientMir_090.png","sad",1,2,2,"PuBu","orientMir","scaleDef","090",NA,NA
"","","","","","html-slider-response",79,215436,"0.0-73.0","l5b83c4qbl",49,NA,"<div style=""width:500px;"">
                            <p style=""font-size:50px; font-weight:bold;""
                            >sad</p>
                            <div style=""width:240px; margin: auto;"">
                                <img src=""images/map15_inferno_scaleRev_orientMir_180.png"" style= ""width:200px""alt=""img"">
                            </div>
                        </div>",0.305,"",0,"",NA,"","images/map15_inferno_scaleRev_orientMir_180.png","sad",1,15,15,"inferno","orientMir","scaleRev","180",NA,NA
"","","","","","html-slider-response",80,217004,"0.0-74.0","l5b83c4qbl",49,NA,"<div style=""width:500px;"">
                            <p style=""font-size:50px; font-weight:bold;""
                            >sad</p>
                            <div style=""width:240px; margin: auto;"">
                                <img src=""images/map26_Reds_scaleDef_orientMir_090.png"" style= ""width:200px""alt=""img"">
                            </div>
                        </div>",0.175,"",0,"",NA,"","images/map26_Reds_scaleDef_orientMir_090.png","sad",1,26,26,"Reds","orientMir","scaleDef","090",NA,NA
"","","","","","html-slider-response",81,219630,"0.0-75.0","l5b83c4qbl",49,NA,"<div style=""width:500px;"">
                            <p style=""font-size:50px; font-weight:bold;""
                            >sad</p>
                            <div style=""width:240px; margin: auto;"">
                                <img src=""images/map02_PuBu_scaleRev_orientMir_180.png"" style= ""width:200px""alt=""img"">
                            </div>
                        </div>",0.755,"",0,"",NA,"","images/map02_PuBu_scaleRev_orientMir_180.png","sad",1,2,2,"PuBu","orientMir","scaleRev","180",NA,NA
"","","","","","html-slider-response",82,222285,"0.0-76.0","l5b83c4qbl",49,NA,"<div style=""width:500px;"">
                            <p style=""font-size:50px; font-weight:bold;""
                            >sad</p>
                            <div style=""width:240px; margin: auto;"">
                                <img src=""images/map10_RdYlGn_scaleDef_orientMir_090.png"" style= ""width:200px""alt=""img"">
                            </div>
                        </div>",0.0925,"",0,"",NA,"","images/map10_RdYlGn_scaleDef_orientMir_090.png","sad",1,10,10,"RdYlGn","orientMir","scaleDef","090",NA,NA
"","","","","","html-slider-response",83,224115,"0.0-77.0","l5b83c4qbl",49,NA,"<div style=""width:500px;"">
                            <p style=""font-size:50px; font-weight:bold;""
                            >sad</p>
                            <div style=""width:240px; margin: auto;"">
                                <img src=""images/map15_viridis_scaleRev_orientDef_180.png"" style= ""width:200px""alt=""img"">
                            </div>
                        </div>",0.1775,"",0,"",NA,"","images/map15_viridis_scaleRev_orientDef_180.png","sad",1,15,15,"viridis","orientDef","scaleRev","180",NA,NA
"","","","","","html-slider-response",84,225288,"0.0-78.0","l5b83c4qbl",49,NA,"<div style=""width:500px;"">
                            <p style=""font-size:50px; font-weight:bold;""
                            >sad</p>
                            <div style=""width:240px; margin: auto;"">
                                <img src=""images/map05_YlGn_scaleRev_orientMir_180.png"" style= ""width:200px""alt=""img"">
                            </div>
                        </div>",0.2425,"",0,"",NA,"","images/map05_YlGn_scaleRev_orientMir_180.png","sad",1,5,5,"YlGn","orientMir","scaleRev","180",NA,NA
"","","","","","html-slider-response",85,226657,"0.0-79.0","l5b83c4qbl",49,NA,"<div style=""width:500px;"">
                            <p style=""font-size:50px; font-weight:bold;""
                            >sad</p>
                            <div style=""width:240px; margin: auto;"">
                                <img src=""images/map02_BuPu_scaleRev_orientDef_180.png"" style= ""width:200px""alt=""img"">
                            </div>
                        </div>",0.255,"",0,"",NA,"","images/map02_BuPu_scaleRev_orientDef_180.png","sad",1,2,2,"BuPu","orientDef","scaleRev","180",NA,NA
"","","","","","html-slider-response",86,227703,"0.0-80.0","l5b83c4qbl",49,NA,"<div style=""width:500px;"">
                            <p style=""font-size:50px; font-weight:bold;""
                            >sad</p>
                            <div style=""width:240px; margin: auto;"">
                                <img src=""images/map02_BuPu_scaleDef_orientDef_090.png"" style= ""width:200px""alt=""img"">
                            </div>
                        </div>",0.255,"",0,"",NA,"","images/map02_BuPu_scaleDef_orientDef_090.png","sad",1,2,2,"BuPu","orientDef","scaleDef","090",NA,NA
"","","","","","html-slider-response",87,229033,"0.0-81.0","l5b83c4qbl",49,NA,"<div style=""width:500px;"">
                            <p style=""font-size:50px; font-weight:bold;""
                            >sad</p>
                            <div style=""width:240px; margin: auto;"">
                                <img src=""images/map13_managua_scaleDef_orientDef_090.png"" style= ""width:200px""alt=""img"">
                            </div>
                        </div>",0.255,"",0,"",NA,"","images/map13_managua_scaleDef_orientDef_090.png","sad",1,13,13,"managua","orientDef","scaleDef","090",NA,NA
"","","","","","html-slider-response",88,230143,"0.0-82.0","l5b83c4qbl",49,NA,"<div style=""width:500px;"">
                            <p style=""font-size:50px; font-weight:bold;""
                            >sad</p>
                            <div style=""width:240px; margin: auto;"">
                                <img src=""images/map10_RdBu_scaleRev_orientDef_180.png"" style= ""width:200px""alt=""img"">
                            </div>
                        </div>",0.255,"",0,"",NA,"","images/map10_RdBu_scaleRev_orientDef_180.png","sad",1,10,10,"RdBu","orientDef","scaleRev","180",NA,NA
"","","","","","html-slider-response",89,231391,"0.0-83.0","l5b83c4qbl",49,NA,"<div style=""width:500px;"">
                            <p style=""font-size:50px; font-weight:bold;""
                            >sad</p>
                            <div style=""width:240px; margin: auto;"">
                                <img src=""images/map07_PRGn_scaleDef_orientDef_090.png"" style= ""width:200px""alt=""img"">
                            </div>
                        </div>",0.21,"",0,"",NA,"","images/map07_PRGn_scaleDef_orientDef_090.png","sad",1,7,7,"PRGn","orientDef","scaleDef","090",NA,NA
"","","","","","html-slider-response",90,232542,"0.0-84.0","l5b83c4qbl",49,NA,"<div style=""width:500px;"">
                            <p style=""font-size:50px; font-weight:bold;""
                            >sad</p>
                            <div style=""width:240px; margin: auto;"">
                                <img src=""images/map27_OrRd_scaleRev_orientMir_000.png"" style= ""width:200px""alt=""img"">
                            </div>
                        </div>",0.225,"",0,"",NA,"","images/map27_OrRd_scaleRev_orientMir_000.png","sad",1,27,27,"OrRd","orientMir","scaleRev","000",NA,NA
"","","","","","html-slider-response",91,233509,"0.0-85.0","l5b83c4qbl",49,NA,"<div style=""width:500px;"">
                            <p style=""font-size:50px; font-weight:bold;""
                            >sad</p>
                            <div style=""width:240px; margin: auto;"">
                                <img src=""images/map26_Greens_scaleRev_orientDef_180.png"" style= ""width:200px""alt=""img"">
                            </div>
                        </div>",0.225,"",0,"",NA,"","images/map26_Greens_scaleRev_orientDef_180.png","sad",1,26,26,"Greens","orientDef","scaleRev","180",NA,NA
"","","","","","html-slider-response",92,235828,"0.0-86.0","l5b83c4qbl",49,NA,"<div style=""width:500px;"">
                            <p style=""font-size:50px; font-weight:bold;""
                            >sad</p>
                            <div style=""width:240px; margin: auto;"">
                                <img src=""images/map05_YlGnBu_scaleRev_orientDef_000.png"" style= ""width:200px""alt=""img"">
                            </div>
                        </div>",0.57,"",0,"",NA,"","images/map05_YlGnBu_scaleRev_orientDef_000.png","sad",1,5,5,"YlGnBu","orientDef","scaleRev","000",NA,NA
"","","","","","html-slider-response",93,237414,"0.0-87.0","l5b83c4qbl",49,NA,"<div style=""width:500px;"">
                            <p style=""font-size:50px; font-weight:bold;""
                            >sad</p>
                            <div style=""width:240px; margin: auto;"">
                                <img src=""images/map13_berlin_scaleRev_orientDef_000.png"" style= ""width:200px""alt=""img"">
                            </div>
                        </div>",0.235,"",0,"",NA,"","images/map13_berlin_scaleRev_orientDef_000.png","sad",1,13,13,"berlin","orientDef","scaleRev","000",NA,NA
"","","","","","html-slider-response",94,238804,"0.0-88.0","l5b83c4qbl",49,NA,"<div style=""width:500px;"">
                            <p style=""font-size:50px; font-weight:bold;""
                            >sad</p>
                            <div style=""width:240px; margin: auto;"">
                                <img src=""images/map23_cividis_scaleDef_orientDef_090.png"" style= ""width:200px""alt=""img"">
                            </div>
                        </div>",0.2525,"",0,"",NA,"","images/map23_cividis_scaleDef_orientDef_090.png","sad",1,23,23,"cividis","orientDef","scaleDef","090",NA,NA
"","","","","","html-slider-response",95,240304,"0.0-89.0","l5b83c4qbl",49,NA,"<div style=""width:500px;"">
                            <p style=""font-size:50px; font-weight:bold;""
                            >sad</p>
                            <div style=""width:240px; margin: auto;"">
                                <img src=""images/map13_turbo_scaleDef_orientMir_270.png"" style= ""width:200px""alt=""img"">
                            </div>
                        </div>",0.235,"",0,"",NA,"","images/map13_turbo_scaleDef_orientMir_270.png","sad",1,13,13,"turbo","orientMir","scaleDef","270",NA,NA
"","","","","","html-slider-response",96,241415,"0.0-90.0","l5b83c4qbl",49,NA,"<div style=""width:500px;"">
                            <p style=""font-size:50px; font-weight:bold;""
                            >sad</p>
                            <div style=""width:240px; margin: auto;"">
                                <img src=""images/map10_RdGy_scaleRev_orientDef_000.png"" style= ""width:200px""alt=""img"">
                            </div>
                        </div>",0.235,"",0,"",NA,"","images/map10_RdGy_scaleRev_orientDef_000.png","sad",1,10,10,"RdGy","orientDef","scaleRev","000",NA,NA
"","","","","","html-slider-response",97,242937,"0.0-91.0","l5b83c4qbl",49,NA,"<div style=""width:500px;"">
                            <p style=""font-size:50px; font-weight:bold;""
                            >sad</p>
                            <div style=""width:240px; margin: auto;"">
                                <img src=""images/map13_vanimo_scaleRev_orientMir_000.png"" style= ""width:200px""alt=""img"">
                            </div>
                        </div>",0.235,"",0,"",NA,"","images/map13_vanimo_scaleRev_orientMir_000.png","sad",1,13,13,"vanimo","orientMir","scaleRev","000",NA,NA
"","","","","","html-slider-response",98,244144,"0.0-92.0","l5b83c4qbl",49,NA,"<div style=""width:500px;"">
                            <p style=""font-size:50px; font-weight:bold;""
                            >sad</p>
                            <div style=""width:240px; margin: auto;"">
                                <img src=""images/map05_YlGn_scaleDef_orientMir_090.png"" style= ""width:200px""alt=""img"">
                            </div>
                        </div>",0.185,"",0,"",NA,"","images/map05_YlGn_scaleDef_orientMir_090.png","sad",1,5,5,"YlGn","orientMir","scaleDef","090",NA,NA
"","","","","","html-slider-response",99,245458,"0.0-93.0","l5b83c4qbl",49,NA,"<div style=""width:500px;"">
                            <p style=""font-size:50px; font-weight:bold;""
                            >sad</p>
                            <div style=""width:240px; margin: auto;"">
                                <img src=""images/map10_RdYlGn_scaleRev_orientMir_180.png"" style= ""width:200px""alt=""img"">
                            </div>
                        </div>",0.175,"",0,"",NA,"","images/map10_RdYlGn_scaleRev_orientMir_180.png","sad",1,10,10,"RdYlGn","orientMir","scaleRev","180",NA,NA
"","","","","","html-slider-response",100,246576,"0.0-94.0","l5b83c4qbl",49,NA,"<div style=""width:500px;"">
                            <p style=""font-size:50px; font-weight:bold;""
                            >sad</p>
                            <div style=""width:240px; margin: auto;"">
                                <img src=""images/map10_Spectral_scaleDef_orientMir_270.png"" style= ""width:200px""alt=""img"">
                            </div>
                        </div>",0.1825,"",0,"",NA,"","images/map10_Spectral_scaleDef_orientMir_270.png","sad",1,10,10,"Spectral","orientMir","scaleDef","270",NA,NA
"","","","","","html-button-response",101,248595,"0.0-95.0","l5b83c4qbl",49,1516,"<p>Great Job! You've finished block 1.<br></br> You have 4 block(s) left to go.<br></br></p>",0.5,"",NA,"",NA,"","","",NA,NA,NA,"","","","",NA,NA
"","","","","","html-button-response",102,251301,"0.0-96.0","l5b83c4qbl",49,2705,"<p>In this block of trials, you will be asked to rate how much you associate each map with:</p > <p style = 'font-size:150%; font-weight: bold'>angry</p><br></br>",0.5,"",NA,"",NA,"","","",NA,NA,NA,"","","","",NA,NA
"","","","","","html-slider-response",103,253230,"0.0-97.0","l5b83c4qbl",49,NA,"<div style=""width:500px;"">
                            <p style=""font-size:50px; font-weight:bold;""
                            >angry</p>
                            <div style=""width:240px; margin: auto;"">
                                <img src=""images/map07_RdGy_scaleDef_orientMir_270.png"" style= ""width:200px""alt=""img"">
                            </div>
                        </div>",0.7425,"",0,"",NA,"","images/map07_RdGy_scaleDef_orientMir_270.png","angry",1,7,7,"RdGy","orientMir","scaleDef","270",NA,NA
"","","","","","html-slider-response",104,254895,"0.0-98.0","l5b83c4qbl",49,NA,"<div style=""width:500px;"">
                            <p style=""font-size:50px; font-weight:bold;""
                            >angry</p>
                            <div style=""width:240px; margin: auto;"">
                                <img src=""images/map02_BuPu_scaleRev_orientDef_180.png"" style= ""width:200px""alt=""img"">
                            </div>
                        </div>",0.2725,"",0,"",NA,"","images/map02_BuPu_scaleRev_orientDef_180.png","angry",1,2,2,"BuPu","orientDef","scaleRev","180",NA,NA
"","","","","","html-slider-response",105,256569,"0.0-99.0","l5b83c4qbl",49,NA,"<div style=""width:500px;"">
                            <p style=""font-size:50px; font-weight:bold;""
                            >angry</p>
                            <div style=""width:240px; margin: auto;"">
                                <img src=""images/map07_BrBG_scaleDef_orientDef_270.png"" style= ""width:200px""alt=""img"">
                            </div>
                        </div>",0.2,"",0,"",NA,"","images/map07_BrBG_scaleDef_orientDef_270.png","angry",1,7,7,"BrBG","orientDef","scaleDef","270",NA,NA
"","","","","","html-slider-response",106,257654,"0.0-100.0","l5b83c4qbl",49,NA,"<div style=""width:500px;"">
                            <p style=""font-size:50px; font-weight:bold;""
                            >angry</p>
                            <div style=""width:240px; margin: auto;"">
                                <img src=""images/map13_gist_earth_scaleDef_orientMir_090.png"" style= ""width:200px""alt=""img"">
                            </div>
                        </div>",0.145,"",0,"",NA,"","images/map13_gist_earth_scaleDef_orientMir_090.png","angry",1,13,13,"gist","scaleDef","earth","orientMir",NA,NA
"","","","","","html-slider-response",107,260150,"0.0-101.0","l5b83c4qbl",49,NA,"<div style=""width:500px;"">
                            <p style=""font-size:50px; font-weight:bold;""
                            >angry</p>
                            <div style=""width:240px; margin: auto;"">
                                <img src=""images/map02_RdPu_scaleRev_orientDef_000.png"" style= ""width:200px""alt=""img"">
                            </div>
                        </div>",0.5575,"",0,"",NA,"","images/map02_RdPu_scaleRev_orientDef_000.png","angry",1,2,2,"RdPu","orientDef","scaleRev","000",NA,NA
"","","","","","html-slider-response",108,262903,"0.0-102.0","l5b83c4qbl",49,NA,"<div style=""width:500px;"">
                            <p style=""font-size:50px; font-weight:bold;""
                            >angry</p>
                            <div style=""width:240px; margin: auto;"">
                                <img src=""images/map05_YlGnBu_scaleRev_orientDef_000.png"" style= ""width:200px""alt=""img"">
                            </div>
                        </div>",0.02,"",0,"",NA,"","images/map05_YlGnBu_scaleRev_orientDef_000.png","angry",1,5,5,"YlGnBu","orientDef","scaleRev","000",NA,NA
"","","","","","html-slider-response",109,266720,"0.0-103.0","l5b83c4qbl",49,NA,"<div style=""width:500px;"">
                            <p style=""font-size:50px; font-weight:bold;""
                            >angry</p>
                            <div style=""width:240px; margin: auto;"">
                                <img src=""images/map12_bwr_scaleRev_orientMir_000.png"" style= ""width:200px""alt=""img"">
                            </div>
                        </div>",0.545,"",0,"",NA,"","images/map12_bwr_scaleRev_orientMir_000.png","angry",1,12,12,"bwr","orientMir","scaleRev","000",NA,NA
"","","","","","html-slider-response",110,268113,"0.0-104.0","l5b83c4qbl",49,NA,"<div style=""width:500px;"">
                            <p style=""font-size:50px; font-weight:bold;""
                            >angry</p>
                            <div style=""width:240px; margin: auto;"">
                                <img src=""images/map12_bwr_scaleDef_orientDef_270.png"" style= ""width:200px""alt=""img"">
                            </div>
                        </div>",0.595,"",0,"",NA,"","images/map12_bwr_scaleDef_orientDef_270.png","angry",1,12,12,"bwr","orientDef","scaleDef","270",NA,NA
"","","","","","html-slider-response",111,270222,"0.0-105.0","l5b83c4qbl",49,NA,"<div style=""width:500px;"">
                            <p style=""font-size:50px; font-weight:bold;""
                            >angry</p>
                            <div style=""width:240px; margin: auto;"">
                                <img src=""images/map10_RdYlGn_scaleRev_orientMir_180.png"" style= ""width:200px""alt=""img"">
                            </div>
                        </div>",0.63,"",0,"",NA,"","images/map10_RdYlGn_scaleRev_orientMir_180.png","angry",1,10,10,"RdYlGn","orientMir","scaleRev","180",NA,NA
"","","","","","html-slider-response",112,272203,"0.0-106.0","l5b83c4qbl",49,NA,"<div style=""width:500px;"">
                            <p style=""font-size:50px; font-weight:bold;""
                            >angry</p>
                            <div style=""width:240px; margin: auto;"">
                                <img src=""images/map05_BuGn_scaleDef_orientDef_270.png"" style= ""width:200px""alt=""img"">
                            </div>
                        </div>",0.2575,"",0,"",NA,"","images/map05_BuGn_scaleDef_orientDef_270.png","angry",1,5,5,"BuGn","orientDef","scaleDef","270",NA,NA
"","","","","","html-slider-response",113,274222,"0.0-107.0","l5b83c4qbl",49,NA,"<div style=""width:500px;"">
                            <p style=""font-size:50px; font-weight:bold;""
                            >angry</p>
                            <div style=""width:240px; margin: auto;"">
                                <img src=""images/map26_Oranges_scaleDef_orientDef_270.png"" style= ""width:200px""alt=""img"">
                            </div>
                        </div>",0.5275,"",0,"",NA,"","images/map26_Oranges_scaleDef_orientDef_270.png","angry",1,26,26,"Oranges","orientDef","scaleDef","270",NA,NA
"","","","","","html-slider-response",114,276122,"0.0-108.0","l5b83c4qbl",49,NA,"<div style=""width:500px;"">
                            <p style=""font-size:50px; font-weight:bold;""
                            >angry</p>
                            <div style=""width:240px; margin: auto;"">
                                <img src=""images/map10_RdGy_scaleRev_orientDef_000.png"" style= ""width:200px""alt=""img"">
                            </div>
                        </div>",0.645,"",0,"",NA,"","images/map10_RdGy_scaleRev_orientDef_000.png","angry",1,10,10,"RdGy","orientDef","scaleRev","000",NA,NA
"","","","","","html-slider-response",115,278248,"0.0-109.0","l5b83c4qbl",49,NA,"<div style=""width:500px;"">
                            <p style=""font-size:50px; font-weight:bold;""
                            >angry</p>
                            <div style=""width:240px; margin: auto;"">
                                <img src=""images/map27_PuRd_scaleRev_orientMir_180.png"" style= ""width:200px""alt=""img"">
                            </div>
                        </div>",0.2325,"",0,"",NA,"","images/map27_PuRd_scaleRev_orientMir_180.png","angry",1,27,27,"PuRd","orientMir","scaleRev","180",NA,NA
"","","","","","html-slider-response",116,280566,"0.0-110.0","l5b83c4qbl",49,NA,"<div style=""width:500px;"">
                            <p style=""font-size:50px; font-weight:bold;""
                            >angry</p>
                            <div style=""width:240px; margin: auto;"">
                                <img src=""images/map07_PRGn_scaleDef_orientDef_090.png"" style= ""width:200px""alt=""img"">
                            </div>
                        </div>",0.155,"",0,"",NA,"","images/map07_PRGn_scaleDef_orientDef_090.png","angry",1,7,7,"PRGn","orientDef","scaleDef","090",NA,NA
"","","","","","html-slider-response",117,281880,"0.0-111.0","l5b83c4qbl",49,NA,"<div style=""width:500px;"">
                            <p style=""font-size:50px; font-weight:bold;""
                            >angry</p>
                            <div style=""width:240px; margin: auto;"">
                                <img src=""images/map13_gist_earth_scaleRev_orientMir_180.png"" style= ""width:200px""alt=""img"">
                            </div>
                        </div>",0.085,"",0,"",NA,"","images/map13_gist_earth_scaleRev_orientMir_180.png","angry",1,13,13,"gist","scaleRev","earth","orientMir",NA,NA
"","","","","","html-slider-response",118,283296,"0.0-112.0","l5b83c4qbl",49,NA,"<div style=""width:500px;"">
                            <p style=""font-size:50px; font-weight:bold;""
                            >angry</p>
                            <div style=""width:240px; margin: auto;"">
                                <img src=""images/map05_PuBuGn_scaleRev_orientDef_180.png"" style= ""width:200px""alt=""img"">
                            </div>
                        </div>",0.0725,"",0,"",NA,"","images/map05_PuBuGn_scaleRev_orientDef_180.png","angry",1,5,5,"PuBuGn","orientDef","scaleRev","180",NA,NA
"","","","","","html-slider-response",119,285848,"0.0-113.0","l5b83c4qbl",49,NA,"<div style=""width:500px;"">
                            <p style=""font-size:50px; font-weight:bold;""
                            >angry</p>
                            <div style=""width:240px; margin: auto;"">
                                <img src=""images/map15_inferno_scaleRev_orientMir_180.png"" style= ""width:200px""alt=""img"">
                            </div>
                        </div>",0.605,"",0,"",NA,"","images/map15_inferno_scaleRev_orientMir_180.png","angry",1,15,15,"inferno","orientMir","scaleRev","180",NA,NA
"","","","","","html-slider-response",120,288683,"0.0-114.0","l5b83c4qbl",49,NA,"<div style=""width:500px;"">
                            <p style=""font-size:50px; font-weight:bold;""
                            >angry</p>
                            <div style=""width:240px; margin: auto;"">
                                <img src=""images/map10_RdBu_scaleRev_orientDef_180.png"" style= ""width:200px""alt=""img"">
                            </div>
                        </div>",0.5025,"",0,"",NA,"","images/map10_RdBu_scaleRev_orientDef_180.png","angry",1,10,10,"RdBu","orientDef","scaleRev","180",NA,NA
"","","","","","html-slider-response",121,292283,"0.0-115.0","l5b83c4qbl",49,NA,"<div style=""width:500px;"">
                            <p style=""font-size:50px; font-weight:bold;""
                            >angry</p>
                            <div style=""width:240px; margin: auto;"">
                                <img src=""images/map02_PuBu_scaleRev_orientMir_180.png"" style= ""width:200px""alt=""img"">
                            </div>
                        </div>",0.1075,"",0,"",NA,"","images/map02_PuBu_scaleRev_orientMir_180.png","angry",1,2,2,"PuBu","orientMir","scaleRev","180",NA,NA
"","","","","","html-slider-response",122,294624,"0.0-116.0","l5b83c4qbl",49,NA,"<div style=""width:500px;"">
                            <p style=""font-size:50px; font-weight:bold;""
                            >angry</p>
                            <div style=""width:240px; margin: auto;"">
                                <img src=""images/map23_cividis_scaleRev_orientDef_180.png"" style= ""width:200px""alt=""img"">
                            </div>
                        </div>",0.0525,"",0,"",NA,"","images/map23_cividis_scaleRev_orientDef_180.png","angry",1,23,23,"cividis","orientDef","scaleRev","180",NA,NA
"","","","","","html-slider-response",123,296990,"0.0-117.0","l5b83c4qbl",49,NA,"<div style=""width:500px;"">
                            <p style=""font-size:50px; font-weight:bold;""
                            >angry</p>
                            <div style=""width:240px; margin: auto;"">
                                <img src=""images/map12_coolwarm_scaleRev_orientDef_180.png"" style= ""width:200px""alt=""img"">
                            </div>
                        </div>",0.5375,"",0,"",NA,"","images/map12_coolwarm_scaleRev_orientDef_180.png","angry",1,12,12,"coolwarm","orientDef","scaleRev","180",NA,NA
"","","","","","html-slider-response",124,298579,"0.0-118.0","l5b83c4qbl",49,NA,"<div style=""width:500px;"">
                            <p style=""font-size:50px; font-weight:bold;""
                            >angry</p>
                            <div style=""width:240px; margin: auto;"">
                                <img src=""images/map23_Blues_scaleDef_orientMir_270.png"" style= ""width:200px""alt=""img"">
                            </div>
                        </div>",0.1625,"",0,"",NA,"","images/map23_Blues_scaleDef_orientMir_270.png","angry",1,23,23,"Blues","orientMir","scaleDef","270",NA,NA
"","","","","","html-slider-response",125,302255,"0.0-119.0","l5b83c4qbl",49,NA,"<div style=""width:500px;"">
                            <p style=""font-size:50px; font-weight:bold;""
                            >angry</p>
                            <div style=""width:240px; margin: auto;"">
                                <img src=""images/map12_berlin_scaleDef_orientMir_270.png"" style= ""width:200px""alt=""img"">
                            </div>
                        </div>",0.5,"",0,"",NA,"","images/map12_berlin_scaleDef_orientMir_270.png","angry",1,12,12,"berlin","orientMir","scaleDef","270",NA,NA
"","","","","","html-slider-response",126,304704,"0.0-120.0","l5b83c4qbl",49,NA,"<div style=""width:500px;"">
                            <p style=""font-size:50px; font-weight:bold;""
                            >angry</p>
                            <div style=""width:240px; margin: auto;"">
                                <img src=""images/map27_YlOrBr_scaleRev_orientDef_000.png"" style= ""width:200px""alt=""img"">
                            </div>
                        </div>",0.235,"",0,"",NA,"","images/map27_YlOrBr_scaleRev_orientDef_000.png","angry",1,27,27,"YlOrBr","orientDef","scaleRev","000",NA,NA
"","","","","","html-slider-response",127,306227,"0.0-121.0","l5b83c4qbl",49,NA,"<div style=""width:500px;"">
                            <p style=""font-size:50px; font-weight:bold;""
                            >angry</p>
                            <div style=""width:240px; margin: auto;"">
                                <img src=""images/map10_Spectral_scaleDef_orientMir_270.png"" style= ""width:200px""alt=""img"">
                            </div>
                        </div>",0.155,"",0,"",NA,"","images/map10_Spectral_scaleDef_orientMir_270.png","angry",1,10,10,"Spectral","orientMir","scaleDef","270",NA,NA
"","","","","","html-slider-response",128,307617,"0.0-122.0","l5b83c4qbl",49,NA,"<div style=""width:500px;"">
                            <p style=""font-size:50px; font-weight:bold;""
                            >angry</p>
                            <div style=""width:240px; margin: auto;"">
                                <img src=""images/map13_managua_scaleDef_orientDef_090.png"" style= ""width:200px""alt=""img"">
                            </div>
                        </div>",0.265,"",0,"",NA,"","images/map13_managua_scaleDef_orientDef_090.png","angry",1,13,13,"managua","orientDef","scaleDef","090",NA,NA
"","","","","","html-slider-response",129,309567,"0.0-123.0","l5b83c4qbl",49,NA,"<div style=""width:500px;"">
                            <p style=""font-size:50px; font-weight:bold;""
                            >angry</p>
                            <div style=""width:240px; margin: auto;"">
                                <img src=""images/map05_YlGn_scaleDef_orientMir_090.png"" style= ""width:200px""alt=""img"">
                            </div>
                        </div>",0.205,"",0,"",NA,"","images/map05_YlGn_scaleDef_orientMir_090.png","angry",1,5,5,"YlGn","orientMir","scaleDef","090",NA,NA
"","","","","","html-slider-response",130,310991,"0.0-124.0","l5b83c4qbl",49,NA,"<div style=""width:500px;"">
                            <p style=""font-size:50px; font-weight:bold;""
                            >angry</p>
                            <div style=""width:240px; margin: auto;"">
                                <img src=""images/map13_turbo_scaleDef_orientMir_270.png"" style= ""width:200px""alt=""img"">
                            </div>
                        </div>",0.205,"",0,"",NA,"","images/map13_turbo_scaleDef_orientMir_270.png","angry",1,13,13,"turbo","orientMir","scaleDef","270",NA,NA
"","","","","","html-slider-response",131,312070,"0.0-125.0","l5b83c4qbl",49,NA,"<div style=""width:500px;"">
                            <p style=""font-size:50px; font-weight:bold;""
                            >angry</p>
                            <div style=""width:240px; margin: auto;"">
                                <img src=""images/map05_YlGn_scaleRev_orientMir_180.png"" style= ""width:200px""alt=""img"">
                            </div>
                        </div>",0.205,"",0,"",NA,"","images/map05_YlGn_scaleRev_orientMir_180.png","angry",1,5,5,"YlGn","orientMir","scaleRev","180",NA,NA
"","","","","","html-slider-response",132,314269,"0.0-126.0","l5b83c4qbl",49,NA,"<div style=""width:500px;"">
                            <p style=""font-size:50px; font-weight:bold;""
                            >angry</p>
                            <div style=""width:240px; margin: auto;"">
                                <img src=""images/map15_inferno_scaleDef_orientMir_090.png"" style= ""width:200px""alt=""img"">
                            </div>
                        </div>",0.77,"",0,"",NA,"","images/map15_inferno_scaleDef_orientMir_090.png","angry",1,15,15,"inferno","orientMir","scaleDef","090",NA,NA
"","","","","","html-slider-response",133,316733,"0.0-127.0","l5b83c4qbl",49,NA,"<div style=""width:500px;"">
                            <p style=""font-size:50px; font-weight:bold;""
                            >angry</p>
                            <div style=""width:240px; margin: auto;"">
                                <img src=""images/map10_RdYlGn_scaleDef_orientMir_090.png"" style= ""width:200px""alt=""img"">
                            </div>
                        </div>",0.4575,"",0,"",NA,"","images/map10_RdYlGn_scaleDef_orientMir_090.png","angry",1,10,10,"RdYlGn","orientMir","scaleDef","090",NA,NA
"","","","","","html-slider-response",134,318921,"0.0-128.0","l5b83c4qbl",49,NA,"<div style=""width:500px;"">
                            <p style=""font-size:50px; font-weight:bold;""
                            >angry</p>
                            <div style=""width:240px; margin: auto;"">
                                <img src=""images/map12_seismic_scaleDef_orientMir_090.png"" style= ""width:200px""alt=""img"">
                            </div>
                        </div>",0.6675,"",0,"",NA,"","images/map12_seismic_scaleDef_orientMir_090.png","angry",1,12,12,"seismic","orientMir","scaleDef","090",NA,NA
"","","","","","html-slider-response",135,321404,"0.0-129.0","l5b83c4qbl",49,NA,"<div style=""width:500px;"">
                            <p style=""font-size:50px; font-weight:bold;""
                            >angry</p>
                            <div style=""width:240px; margin: auto;"">
                                <img src=""images/map13_berlin_scaleRev_orientDef_000.png"" style= ""width:200px""alt=""img"">
                            </div>
                        </div>",0.1425,"",0,"",NA,"","images/map13_berlin_scaleRev_orientDef_000.png","angry",1,13,13,"berlin","orientDef","scaleRev","000",NA,NA
"","","","","","html-slider-response",136,323579,"0.0-130.0","l5b83c4qbl",49,NA,"<div style=""width:500px;"">
                            <p style=""font-size:50px; font-weight:bold;""
                            >angry</p>
                            <div style=""width:240px; margin: auto;"">
                                <img src=""images/map23_Greys_scaleRev_orientMir_000.png"" style= ""width:200px""alt=""img"">
                            </div>
                        </div>",0.35,"",0,"",NA,"","images/map23_Greys_scaleRev_orientMir_000.png","angry",1,23,23,"Greys","orientMir","scaleRev","000",NA,NA
"","","","","","html-slider-response",137,325003,"0.0-131.0","l5b83c4qbl",49,NA,"<div style=""width:500px;"">
                            <p style=""font-size:50px; font-weight:bold;""
                            >angry</p>
                            <div style=""width:240px; margin: auto;"">
                                <img src=""images/map13_managua_scaleRev_orientDef_180.png"" style= ""width:200px""alt=""img"">
                            </div>
                        </div>",0.2,"",0,"",NA,"","images/map13_managua_scaleRev_orientDef_180.png","angry",1,13,13,"managua","orientDef","scaleRev","180",NA,NA
"","","","","","html-slider-response",138,327282,"0.0-132.0","l5b83c4qbl",49,NA,"<div style=""width:500px;"">
                            <p style=""font-size:50px; font-weight:bold;""
                            >angry</p>
                            <div style=""width:240px; margin: auto;"">
                                <img src=""images/map27_PuRd_scaleDef_orientMir_090.png"" style= ""width:200px""alt=""img"">
                            </div>
                        </div>",0.235,"",0,"",NA,"","images/map27_PuRd_scaleDef_orientMir_090.png","angry",1,27,27,"PuRd","orientMir","scaleDef","090",NA,NA
"","","","","","html-slider-response",139,329562,"0.0-133.0","l5b83c4qbl",49,NA,"<div style=""width:500px;"">
                            <p style=""font-size:50px; font-weight:bold;""
                            >angry</p>
                            <div style=""width:240px; margin: auto;"">
                                <img src=""images/map27_OrRd_scaleDef_orientDef_270.png"" style= ""width:200px""alt=""img"">
                            </div>
                        </div>",0.715,"",0,"",NA,"","images/map27_OrRd_scaleDef_orientDef_270.png","angry",1,27,27,"OrRd","orientDef","scaleDef","270",NA,NA
"","","","","","html-slider-response",140,331436,"0.0-134.0","l5b83c4qbl",49,NA,"<div style=""width:500px;"">
                            <p style=""font-size:50px; font-weight:bold;""
                            >angry</p>
                            <div style=""width:240px; margin: auto;"">
                                <img src=""images/map10_RdBu_scaleDef_orientDef_090.png"" style= ""width:200px""alt=""img"">
                            </div>
                        </div>",0.1775,"",0,"",NA,"","images/map10_RdBu_scaleDef_orientDef_090.png","angry",1,10,10,"RdBu","orientDef","scaleDef","090",NA,NA
"","","","","","html-slider-response",141,333652,"0.0-135.0","l5b83c4qbl",49,NA,"<div style=""width:500px;"">
                            <p style=""font-size:50px; font-weight:bold;""
                            >angry</p>
                            <div style=""width:240px; margin: auto;"">
                                <img src=""images/map02_PuBu_scaleDef_orientMir_090.png"" style= ""width:200px""alt=""img"">
                            </div>
                        </div>",0.0425,"",0,"",NA,"","images/map02_PuBu_scaleDef_orientMir_090.png","angry",1,2,2,"PuBu","orientMir","scaleDef","090",NA,NA
"","","","","","html-slider-response",142,335340,"0.0-136.0","l5b83c4qbl",49,NA,"<div style=""width:500px;"">
                            <p style=""font-size:50px; font-weight:bold;""
                            >angry</p>
                            <div style=""width:240px; margin: auto;"">
                                <img src=""images/map05_PiYG_scaleDef_orientMir_270.png"" style= ""width:200px""alt=""img"">
                            </div>
                        </div>",0.0875,"",0,"",NA,"","images/map05_PiYG_scaleDef_orientMir_270.png","angry",1,5,5,"PiYG","orientMir","scaleDef","270",NA,NA
"","","","","","html-button-response",143,336727,"0.0-137.0","l5b83c4qbl",49,884,"<p>You are doing great!<br></br> You are halway done with the current block. When you are ready to continue, click the 'Continue' button.</p>",0.5,"",NA,"",NA,"","","",NA,NA,NA,"","","","",NA,NA
"","","","","","html-slider-response",144,338580,"0.0-138.0","l5b83c4qbl",49,NA,"<div style=""width:500px;"">
                            <p style=""font-size:50px; font-weight:bold;""
                            >angry</p>
                            <div style=""width:240px; margin: auto;"">
                                <img src=""images/map02_GnBu_scaleDef_orientDef_270.png"" style= ""width:200px""alt=""img"">
                            </div>
                        </div>",0.195,"",0,"",NA,"","images/map02_GnBu_scaleDef_orientDef_270.png","angry",1,2,2,"GnBu","orientDef","scaleDef","270",NA,NA
"","","","","","html-slider-response",145,344537,"0.0-139.0","l5b83c4qbl",49,NA,"<div style=""width:500px;"">
                            <p style=""font-size:50px; font-weight:bold;""
                            >angry</p>
                            <div style=""width:240px; margin: auto;"">
                                <img src=""images/map07_PuOr_scaleDef_orientMir_090.png"" style= ""width:200px""alt=""img"">
                            </div>
                        </div>",0.1125,"",0,"",NA,"","images/map07_PuOr_scaleDef_orientMir_090.png","angry",1,7,7,"PuOr","orientMir","scaleDef","090",NA,NA
"","","","","","html-slider-response",146,345937,"0.0-140.0","l5b83c4qbl",49,NA,"<div style=""width:500px;"">
                            <p style=""font-size:50px; font-weight:bold;""
                            >angry</p>
                            <div style=""width:240px; margin: auto;"">
                                <img src=""images/map05_PuBuGn_scaleDef_orientDef_090.png"" style= ""width:200px""alt=""img"">
                            </div>
                        </div>",0.17,"",0,"",NA,"","images/map05_PuBuGn_scaleDef_orientDef_090.png","angry",1,5,5,"PuBuGn","orientDef","scaleDef","090",NA,NA
"","","","","","html-slider-response",147,347154,"0.0-141.0","l5b83c4qbl",49,NA,"<div style=""width:500px;"">
                            <p style=""font-size:50px; font-weight:bold;""
                            >angry</p>
                            <div style=""width:240px; margin: auto;"">
                                <img src=""images/map07_PiYG_scaleRev_orientDef_000.png"" style= ""width:200px""alt=""img"">
                            </div>
                        </div>",0.17,"",0,"",NA,"","images/map07_PiYG_scaleRev_orientDef_000.png","angry",1,7,7,"PiYG","orientDef","scaleRev","000",NA,NA
"","","","","","html-slider-response",148,348361,"0.0-142.0","l5b83c4qbl",49,NA,"<div style=""width:500px;"">
                            <p style=""font-size:50px; font-weight:bold;""
                            >angry</p>
                            <div style=""width:240px; margin: auto;"">
                                <img src=""images/map13_vanimo_scaleDef_orientDef_270.png"" style= ""width:200px""alt=""img"">
                            </div>
                        </div>",0.0525,"",0,"",NA,"","images/map13_vanimo_scaleDef_orientDef_270.png","angry",1,13,13,"vanimo","orientDef","scaleDef","270",NA,NA
"","","","","","html-slider-response",149,349671,"0.0-143.0","l5b83c4qbl",49,NA,"<div style=""width:500px;"">
                            <p style=""font-size:50px; font-weight:bold;""
                            >angry</p>
                            <div style=""width:240px; margin: auto;"">
                                <img src=""images/map15_viridis_scaleDef_orientDef_090.png"" style= ""width:200px""alt=""img"">
                            </div>
                        </div>",0.25,"",0,"",NA,"","images/map15_viridis_scaleDef_orientDef_090.png","angry",1,15,15,"viridis","orientDef","scaleDef","090",NA,NA
"","","","","","html-slider-response",150,351195,"0.0-144.0","l5b83c4qbl",49,NA,"<div style=""width:500px;"">
                            <p style=""font-size:50px; font-weight:bold;""
                            >angry</p>
                            <div style=""width:240px; margin: auto;"">
                                <img src=""images/map27_RdPu_scaleDef_orientMir_270.png"" style= ""width:200px""alt=""img"">
                            </div>
                        </div>",0.2425,"",0,"",NA,"","images/map27_RdPu_scaleDef_orientMir_270.png","angry",1,27,27,"RdPu","orientMir","scaleDef","270",NA,NA
"","","","","","html-slider-response",151,353433,"0.0-145.0","l5b83c4qbl",49,NA,"<div style=""width:500px;"">
                            <p style=""font-size:50px; font-weight:bold;""
                            >angry</p>
                            <div style=""width:240px; margin: auto;"">
                                <img src=""images/map26_Oranges_scaleRev_orientMir_000.png"" style= ""width:200px""alt=""img"">
                            </div>
                        </div>",0.605,"",0,"",NA,"","images/map26_Oranges_scaleRev_orientMir_000.png","angry",1,26,26,"Oranges","orientMir","scaleRev","000",NA,NA
"","","","","","html-slider-response",152,354971,"0.0-146.0","l5b83c4qbl",49,NA,"<div style=""width:500px;"">
                            <p style=""font-size:50px; font-weight:bold;""
                            >angry</p>
                            <div style=""width:240px; margin: auto;"">
                                <img src=""images/map23_Purples_scaleRev_orientMir_180.png"" style= ""width:200px""alt=""img"">
                            </div>
                        </div>",0.18,"",0,"",NA,"","images/map23_Purples_scaleRev_orientMir_180.png","angry",1,23,23,"Purples","orientMir","scaleRev","180",NA,NA
"","","","","","html-slider-response",153,356017,"0.0-147.0","l5b83c4qbl",49,NA,"<div style=""width:500px;"">
                            <p style=""font-size:50px; font-weight:bold;""
                            >angry</p>
                            <div style=""width:240px; margin: auto;"">
                                <img src=""images/map15_viridis_scaleRev_orientDef_180.png"" style= ""width:200px""alt=""img"">
                            </div>
                        </div>",0.1975,"",0,"",NA,"","images/map15_viridis_scaleRev_orientDef_180.png","angry",1,15,15,"viridis","orientDef","scaleRev","180",NA,NA
"","","","","","html-slider-response",154,356966,"0.0-148.0","l5b83c4qbl",49,NA,"<div style=""width:500px;"">
                            <p style=""font-size:50px; font-weight:bold;""
                            >angry</p>
                            <div style=""width:240px; margin: auto;"">
                                <img src=""images/map02_GnBu_scaleRev_orientMir_000.png"" style= ""width:200px""alt=""img"">
                            </div>
                        </div>",0.1975,"",0,"",NA,"","images/map02_GnBu_scaleRev_orientMir_000.png","angry",1,2,2,"GnBu","orientMir","scaleRev","000",NA,NA
"","","","","","html-slider-response",155,359165,"0.0-149.0","l5b83c4qbl",49,NA,"<div style=""width:500px;"">
                            <p style=""font-size:50px; font-weight:bold;""
                            >angry</p>
                            <div style=""width:240px; margin: auto;"">
                                <img src=""images/map27_YlOrRd_scaleRev_orientDef_180.png"" style= ""width:200px""alt=""img"">
                            </div>
                        </div>",0.725,"",0,"",NA,"","images/map27_YlOrRd_scaleRev_orientDef_180.png","angry",1,27,27,"YlOrRd","orientDef","scaleRev","180",NA,NA
"","","","","","html-slider-response",156,360742,"0.0-150.0","l5b83c4qbl",49,NA,"<div style=""width:500px;"">
                            <p style=""font-size:50px; font-weight:bold;""
                            >angry</p>
                            <div style=""width:240px; margin: auto;"">
                                <img src=""images/map07_PRGn_scaleRev_orientDef_180.png"" style= ""width:200px""alt=""img"">
                            </div>
                        </div>",0.1925,"",0,"",NA,"","images/map07_PRGn_scaleRev_orientDef_180.png","angry",1,7,7,"PRGn","orientDef","scaleRev","180",NA,NA
"","","","","","html-slider-response",157,361999,"0.0-151.0","l5b83c4qbl",49,NA,"<div style=""width:500px;"">
                            <p style=""font-size:50px; font-weight:bold;""
                            >angry</p>
                            <div style=""width:240px; margin: auto;"">
                                <img src=""images/map15_turbo_scaleRev_orientDef_000.png"" style= ""width:200px""alt=""img"">
                            </div>
                        </div>",0.1925,"",0,"",NA,"","images/map15_turbo_scaleRev_orientDef_000.png","angry",1,15,15,"turbo","orientDef","scaleRev","000",NA,NA
"","","","","","html-slider-response",158,363424,"0.0-152.0","l5b83c4qbl",49,NA,"<div style=""width:500px;"">
                            <p style=""font-size:50px; font-weight:bold;""
                            >angry</p>
                            <div style=""width:240px; margin: auto;"">
                                <img src=""images/map23_Purples_scaleDef_orientMir_090.png"" style= ""width:200px""alt=""img"">
                            </div>
                        </div>",0.1925,"",0,"",NA,"","images/map23_Purples_scaleDef_orientMir_090.png","angry",1,23,23,"Purples","orientMir","scaleDef","090",NA,NA
"","","","","","html-slider-response",159,364526,"0.0-153.0","l5b83c4qbl",49,NA,"<div style=""width:500px;"">
                            <p style=""font-size:50px; font-weight:bold;""
                            >angry</p>
                            <div style=""width:240px; margin: auto;"">
                                <img src=""images/map02_YlGnBu_scaleDef_orientMir_270.png"" style= ""width:200px""alt=""img"">
                            </div>
                        </div>",0.1925,"",0,"",NA,"","images/map02_YlGnBu_scaleDef_orientMir_270.png","angry",1,2,2,"YlGnBu","orientMir","scaleDef","270",NA,NA
"","","","","","html-slider-response",160,365549,"0.0-154.0","l5b83c4qbl",49,NA,"<div style=""width:500px;"">
                            <p style=""font-size:50px; font-weight:bold;""
                            >angry</p>
                            <div style=""width:240px; margin: auto;"">
                                <img src=""images/map07_BrBG_scaleRev_orientMir_000.png"" style= ""width:200px""alt=""img"">
                            </div>
                        </div>",0.1925,"",0,"",NA,"","images/map07_BrBG_scaleRev_orientMir_000.png","angry",1,7,7,"BrBG","orientMir","scaleRev","000",NA,NA
"","","","","","html-slider-response",161,368808,"0.0-155.0","l5b83c4qbl",49,NA,"<div style=""width:500px;"">
                            <p style=""font-size:50px; font-weight:bold;""
                            >angry</p>
                            <div style=""width:240px; margin: auto;"">
                                <img src=""images/map15_plasma_scaleRev_orientMir_000.png"" style= ""width:200px""alt=""img"">
                            </div>
                        </div>",0.365,"",0,"",NA,"","images/map15_plasma_scaleRev_orientMir_000.png","angry",1,15,15,"plasma","orientMir","scaleRev","000",NA,NA
"","","","","","html-slider-response",162,371322,"0.0-156.0","l5b83c4qbl",49,NA,"<div style=""width:500px;"">
                            <p style=""font-size:50px; font-weight:bold;""
                            >angry</p>
                            <div style=""width:240px; margin: auto;"">
                                <img src=""images/map23_magma_scaleRev_orientDef_000.png"" style= ""width:200px""alt=""img"">
                            </div>
                        </div>",0.4575,"",0,"",NA,"","images/map23_magma_scaleRev_orientDef_000.png","angry",1,23,23,"magma","orientDef","scaleRev","000",NA,NA
"","","","","","html-slider-response",163,373825,"0.0-157.0","l5b83c4qbl",49,NA,"<div style=""width:500px;"">
                            <p style=""font-size:50px; font-weight:bold;""
                            >angry</p>
                            <div style=""width:240px; margin: auto;"">
                                <img src=""images/map27_YlOrRd_scaleDef_orientDef_090.png"" style= ""width:200px""alt=""img"">
                            </div>
                        </div>",0.83,"",0,"",NA,"","images/map27_YlOrRd_scaleDef_orientDef_090.png","angry",1,27,27,"YlOrRd","orientDef","scaleDef","090",NA,NA
"","","","","","html-slider-response",164,375491,"0.0-158.0","l5b83c4qbl",49,NA,"<div style=""width:500px;"">
                            <p style=""font-size:50px; font-weight:bold;""
                            >angry</p>
