"success","timeout","failed_images","failed_audio","failed_video","trial_type","trial_index","time_elapsed","internal_node_id","subject_id","condition_num","SONA_id","rt","stimulus","response","question_order","slider_start","practiceTrial","practiceTrialNum","correct","image_path","concept","repetition","map_id","map_num","scale_name","orientation_code","mapping_code","rotation_code","shift_code","ishihara_plate","correct_response"
"true","false","[]","[]","[]","preload","0","1325","0.0-0.0","jsvw0zanag","2","97319","","","","","","","","","","","","","","","","","","","",""
"","","","","","html-button-response","1","2713","0.0-1.0","jsvw0zanag","2","97319","1387","Welcome to our experiment!<p>At the bottom of this screen, you will see a button that says ""Begin Experiment"".<br>Please only click that button when you are ready to complete the 30 minute experiment in one sitting.</p><p> Once you click that button, it will not be possible to restart the experiment.","0","","","","","","","","","","","","","","","","",""
"true","","","","","fullscreen","2","5432","0.0-2.0","jsvw0zanag","2","97319","1715","","","","","","","","","","","","","","","","","","",""
"","","","","","survey-multi-select","3","13780","0.0-3.0","jsvw0zanag","2","97319","8345","","{""Consent"":[""<strong>I consent</strong>""]}","[0]","","","","","","","","","","","","","","","",""
"","","","","","html-button-response","4","17712","0.0-4.0","jsvw0zanag","2","97319","3930","Welcome! <p> This experiment involves two parts: demographic information, followed by the experimental task.<p> It will take about 30 minutes to complete both parts.","0","","","","","","","","","","","","","","","","",""
"","","","","","survey-text","5","34231","0.0-5.0","jsvw0zanag","2","97319","16511","","{""Age"":""19"",""Gender"":""Female"",""Race/ethnicity"":""White"",""Languages"":""English/ some spanish ""}","","","","","","","","","","","","","","","","",""
"","","","","","html-slider-response","6","118928","0.0-6.0","jsvw0zanag","2","97319","84694","<div style='text-align:left; font-size:20px; line-height:25px; width: 1000px;'>
                                During this experiment you will be asked to rate how much you associate maps with                    different concepts.<br> Below, you can see some examples of the maps you will be asked to rate. Above the maps
                    is the list of concepts.<br>You will be asked                    to rate how much you associate each map with each concept on a scale from 'not at all' to 'very much' like the
                    one below. <br><br>
                    Now, please look at the list of concepts and maps. For each concept, think about the map you associate 'very
                    much' with the concept.<br>                     When you see that map during the experiment, please rate it near the 'very much' endpoint of the
                    scale.<br>Now, please think about which map you associate 'not at all'                     with each concept. When you see that map during the experiment, please rate it near the 'not at all' endpoint
                    of the scale.<br>
                    Please use the full range of the scale. That is, if a map is somewhat associated with the concept, you would
                    click partway between the middle point and right side of the scale.                    You will be asked to rate each map for a given concept before moving on to the next concept.<br>Press the
                    'Continue' button for instructions on how to use the slider.                    <br>
                </div>

                <div style=""width: 500px; margin: 0 auto;"">
                    <!-- Centered text paragraphs -->
                    <div style=""text-align: center; width: 500px;"">
                        <p style=""font-size:25px; line-height:15px;"">
                            happy&nbsp;&nbsp;&nbsp;&nbsp;
                            angry&nbsp;&nbsp;&nbsp;&nbsp;
                            sad&nbsp;&nbsp;&nbsp;&nbsp;
                            fearful&nbsp;&nbsp;&nbsp;&nbsp;
                            disgust
                        </p>
                        <!-- <p style=""font-size:20px; line-height:15px;"">angry</p>
                        <p style=""font-size:20px;line-height:15px;"">sad</p>
                        <p style=""font-size:20px;line-height:15px;"">fearful</p>
                        <p style=""font-size:20px;line-height:15px;"">disgust</p> -->
                    </div>
            

                    <!-- Grid section -->
                   <div style=""display: flex; justify-content: center; padding-top: 15px;"">
                    <div style=""display: grid; grid-template-columns: repeat(10, 55px); grid-gap: 5px; width: auto;"">
                        <img src=""images/shifted_maps/map27_managua_scaleRev_orientDef_270_darkshift.png"" alt=""map"" style=""width: 100%;""><img src=""images/shifted_maps/map15_cividis_scaleDef_orientDef_000_darkshift.png"" alt=""map"" style=""width: 100%;""><img src=""images/shifted_maps/map23_RdYlGn_scaleDef_orientDef_180_lightshift.png"" alt=""map"" style=""width: 100%;""><img src=""images/shifted_maps/map13_BrBG_scaleRev_orientDef_090_darkshift.png"" alt=""map"" style=""width: 100%;""><img src=""images/shifted_maps/map07_Greys_scaleRev_orientDef_090_lightshift.png"" alt=""map"" style=""width: 100%;""><img src=""images/shifted_maps/map12_RdGy_scaleDef_orientDef_000_lightshift.png"" alt=""map"" style=""width: 100%;""><img src=""images/shifted_maps/map27_berlin_scaleRev_orientDef_090_darkshift.png"" alt=""map"" style=""width: 100%;""><img src=""images/shifted_maps/map12_BuPu_scaleDef_orientDef_180_darkshift.png"" alt=""map"" style=""width: 100%;""><img src=""images/shifted_maps/map26_BuGn_scaleDef_orientDef_180_darkshift.png"" alt=""map"" style=""width: 100%;""><img src=""images/shifted_maps/map10_coolwarm_scaleRev_orientDef_090_darkshift.png"" alt=""map"" style=""width: 100%;""><img src=""images/shifted_maps/map02_turbo_scaleDef_orientDef_000_lightshift.png"" alt=""map"" style=""width: 100%;""><img src=""images/shifted_maps/map23_PRGn_scaleRev_orientDef_090_darkshift.png"" alt=""map"" style=""width: 100%;""><img src=""images/shifted_maps/map15_cividis_scaleRev_orientDef_090_lightshift.png"" alt=""map"" style=""width: 100%;""><img src=""images/shifted_maps/map05_PiYG_scaleRev_orientDef_270_lightshift.png"" alt=""map"" style=""width: 100%;""><img src=""images/shifted_maps/map15_YlOrBr_scaleDef_orientDef_180_lightshift.png"" alt=""map"" style=""width: 100%;""><img src=""images/shifted_maps/map12_RdGy_scaleRev_orientDef_090_darkshift.png"" alt=""map"" style=""width: 100%;""><img src=""images/shifted_maps/map10_vanimo_scaleRev_orientDef_270_darkshift.png"" alt=""map"" style=""width: 100%;""><img src=""images/shifted_maps/map05_PiYG_scaleDef_orientDef_180_darkshift.png"" alt=""map"" style=""width: 100%;""><img src=""images/shifted_maps/map13_magma_scaleDef_orientDef_180_darkshift.png"" alt=""map"" style=""width: 100%;""><img src=""images/shifted_maps/map13_BrBG_scaleRev_orientDef_090_lightshift.png"" alt=""map"" style=""width: 100%;""><img src=""images/shifted_maps/map02_Reds_scaleRev_orientDef_270_lightshift.png"" alt=""map"" style=""width: 100%;""><img src=""images/shifted_maps/map07_Greys_scaleDef_orientDef_000_darkshift.png"" alt=""map"" style=""width: 100%;""><img src=""images/shifted_maps/map13_magma_scaleDef_orientDef_180_lightshift.png"" alt=""map"" style=""width: 100%;""><img src=""images/shifted_maps/map10_vanimo_scaleRev_orientDef_270_lightshift.png"" alt=""map"" style=""width: 100%;""><img src=""images/shifted_maps/map26_BuGn_scaleRev_orientDef_270_lightshift.png"" alt=""map"" style=""width: 100%;""><img src=""images/shifted_maps/map07_PuRd_scaleDef_orientDef_180_darkshift.png"" alt=""map"" style=""width: 100%;""><img src=""images/shifted_maps/map05_PuBu_scaleRev_orientDef_090_darkshift.png"" alt=""map"" style=""width: 100%;""><img src=""images/shifted_maps/map27_berlin_scaleDef_orientDef_000_lightshift.png"" alt=""map"" style=""width: 100%;""><img src=""images/shifted_maps/map02_turbo_scaleDef_orientDef_000_darkshift.png"" alt=""map"" style=""width: 100%;""><img src=""images/shifted_maps/map05_PuBu_scaleDef_orientDef_000_lightshift.png"" alt=""map"" style=""width: 100%;""><img src=""images/shifted_maps/map07_PuRd_scaleRev_orientDef_270_lightshift.png"" alt=""map"" style=""width: 100%;""><img src=""images/shifted_maps/map10_coolwarm_scaleRev_orientDef_090_lightshift.png"" alt=""map"" style=""width: 100%;""><img src=""images/shifted_maps/map26_PuOr_scaleRev_orientDef_090_lightshift.png"" alt=""map"" style=""width: 100%;""><img src=""images/shifted_maps/map12_BuPu_scaleRev_orientDef_270_lightshift.png"" alt=""map"" style=""width: 100%;""><img src=""images/shifted_maps/map02_Reds_scaleRev_orientDef_270_darkshift.png"" alt=""map"" style=""width: 100%;""><img src=""images/shifted_maps/map23_RdYlGn_scaleDef_orientDef_180_darkshift.png"" alt=""map"" style=""width: 100%;""><img src=""images/shifted_maps/map23_PRGn_scaleDef_orientDef_000_lightshift.png"" alt=""map"" style=""width: 100%;""><img src=""images/shifted_maps/map27_managua_scaleDef_orientDef_180_lightshift.png"" alt=""map"" style=""width: 100%;""><img src=""images/shifted_maps/map26_PuOr_scaleDef_orientDef_000_darkshift.png"" alt=""map"" style=""width: 100%;""><img src=""images/shifted_maps/map15_YlOrBr_scaleDef_orientDef_180_darkshift.png"" alt=""map"" style=""width: 100%;"">
                    </div>
                </div>

                    <!-- Clear floats -->
                    <div style=""clear: both;""></div>
                </div>
                            ","61","","0","true","","","","","","","","","","","","","",""
"","","","","","html-button-response","7","121845","0.0-7.0","jsvw0zanag","2","97319","2916","<div style=""width:800px;""><p style=""text-align:left"">To move the slider, click and drag your cursor to the location of the scale where you would like to make your rating and then let go. When you let go of the slider, your response will be recorded and the next trial will begin. <br>
                    We are interested in your initial impressions of each map for the given concept, so please go with your first intuition. <br>
                    Before you begin the experiment, there will be four training trials for you to practice using the scale. <br>
                     When you are ready to start the training trials, please click ""Continue"".</p><br></div>","0","","","","","","","","","","","","","","","","",""
"","","","","","html-slider-response","8","126323","0.0-8.0-0.0","jsvw0zanag","2","97319","NaN","<div style=""width:500px;"">
                                    <p style=""font-size:25px;"">Please move the slider all the way to the <br> right endpoint of the scale</p>

                                    </div>
                                </div>","200","","0","true","0","true","","","","","","","","","","","",""
"","","","","","html-button-response","9","128245","0.0-8.0-1.0","jsvw0zanag","2","97319","1419","<p align='center'><b>Good job!</b> Click on 'Continue' to proceed.</p>","0","","","","","","","","","","","","","","","","",""
"","","","","","html-slider-response","10","129656","0.0-9.0-0.0","jsvw0zanag","2","97319","NaN","<div style=""width:500px;"">
                                    <p style=""font-size:25px;"">Please move the slider all the way to the <br> left endpoint of the scale</p>

                                    </div>
                                </div>","-200","","0","true","1","true","","","","","","","","","","","",""
"","","","","","html-button-response","11","131045","0.0-9.0-1.0","jsvw0zanag","2","97319","887","<p align='center'><b>Good job!</b> Click on 'Continue' to proceed.</p>","0","","","","","","","","","","","","","","","","",""
"","","","","","html-slider-response","12","134738","0.0-10.0-0.0","jsvw0zanag","2","97319","NaN","<div style=""width:500px;"">
                                    <p style=""font-size:25px;"">Please move the slider halfway between the center and right endpoint of the scale</p>

                                    </div>
                                </div>","106","","0","true","2","true","","","","","","","","","","","",""
"","","","","","html-button-response","13","136145","0.0-10.0-1.0","jsvw0zanag","2","97319","904","<p align='center'><b>Good job!</b> Click on 'Continue' to proceed.</p>","0","","","","","","","","","","","","","","","","",""
"","","","","","html-slider-response","14","138773","0.0-11.0-0.0","jsvw0zanag","2","97319","NaN","<div style=""width:500px;"">
                                    <p style=""font-size:25px;"">Please move the slider halfway between the center and left endpoint of the scale</p>

                                    </div>
                                </div>","-103","","0","true","3","true","","","","","","","","","","","",""
"","","","","","html-button-response","15","139912","0.0-11.0-1.0","jsvw0zanag","2","97319","637","<p align='center'><b>Good job!</b> Click on 'Continue' to proceed.</p>","0","","","","","","","","","","","","","","","","",""
"","","","","","html-button-response","16","141528","0.0-12.0","jsvw0zanag","2","97319","1615","<p>Great job! You've completed the practice trials. Now you will begin the main task.</p>","0","","","","","","","","","","","","","","","","",""
"","","","","","html-button-response","17","144511","0.0-13.0","jsvw0zanag","2","97319","2982","<p>In this block of trials, you will be asked to rate how much you associate each map with:</p > <p style = 'font-size:150%; font-weight: bold'>happy</p><br></br>","0","","","","","","","","","","","","","","","","",""
"","","","","","html-slider-response","18","147090","0.0-14.0","jsvw0zanag","2","97319","NaN","<div style=""width:500px;"">
                            <p style=""font-size:50px; font-weight:bold;""
                            >happy</p>
                            <div style=""width:240px; margin: auto;"">
                                <img src=""images/shifted_maps/map13_BrBG_scaleDef_orientDef_000_lightshift.png"" style= ""width:200px""alt=""img"">
                            </div>
                        </div>","143","","0","","","","images/shifted_maps/map13_BrBG_scaleDef_orientDef_000_lightshift.png","happy","1","13","13","BrBG","orientDef","scaleDef","000","lightshift","",""
"","","","","","html-slider-response","19","149590","0.0-15.0","jsvw0zanag","2","97319","NaN","<div style=""width:500px;"">
                            <p style=""font-size:50px; font-weight:bold;""
                            >happy</p>
                            <div style=""width:240px; margin: auto;"">
                                <img src=""images/shifted_maps/map07_Greys_scaleRev_orientDef_090_lightshift.png"" style= ""width:200px""alt=""img"">
                            </div>
                        </div>","-183","","0","","","","images/shifted_maps/map07_Greys_scaleRev_orientDef_090_lightshift.png","happy","1","07","07","Greys","orientDef","scaleRev","090","lightshift","",""
"","","","","","html-slider-response","20","151489","0.0-16.0","jsvw0zanag","2","97319","NaN","<div style=""width:500px;"">
                            <p style=""font-size:50px; font-weight:bold;""
                            >happy</p>
                            <div style=""width:240px; margin: auto;"">
                                <img src=""images/shifted_maps/map27_managua_scaleDef_orientDef_180_darkshift.png"" style= ""width:200px""alt=""img"">
                            </div>
                        </div>","41","","0","","","","images/shifted_maps/map27_managua_scaleDef_orientDef_180_darkshift.png","happy","1","27","27","managua","orientDef","scaleDef","180","darkshift","",""
"","","","","","html-slider-response","21","153622","0.0-17.0","jsvw0zanag","2","97319","NaN","<div style=""width:500px;"">
                            <p style=""font-size:50px; font-weight:bold;""
                            >happy</p>
                            <div style=""width:240px; margin: auto;"">
                                <img src=""images/shifted_maps/map05_PiYG_scaleRev_orientDef_270_lightshift.png"" style= ""width:200px""alt=""img"">
                            </div>
                        </div>","86","","0","","","","images/shifted_maps/map05_PiYG_scaleRev_orientDef_270_lightshift.png","happy","1","05","05","PiYG","orientDef","scaleRev","270","lightshift","",""
"","","","","","html-slider-response","22","155988","0.0-18.0","jsvw0zanag","2","97319","NaN","<div style=""width:500px;"">
                            <p style=""font-size:50px; font-weight:bold;""
                            >happy</p>
                            <div style=""width:240px; margin: auto;"">
                                <img src=""images/shifted_maps/map26_BuGn_scaleDef_orientDef_180_lightshift.png"" style= ""width:200px""alt=""img"">
                            </div>
                        </div>","-37","","0","","","","images/shifted_maps/map26_BuGn_scaleDef_orientDef_180_lightshift.png","happy","1","26","26","BuGn","orientDef","scaleDef","180","lightshift","",""
"","","","","","html-slider-response","23","157872","0.0-19.0","jsvw0zanag","2","97319","NaN","<div style=""width:500px;"">
                            <p style=""font-size:50px; font-weight:bold;""
                            >happy</p>
                            <div style=""width:240px; margin: auto;"">
                                <img src=""images/shifted_maps/map23_PRGn_scaleRev_orientDef_090_darkshift.png"" style= ""width:200px""alt=""img"">
                            </div>
                        </div>","-106","","0","","","","images/shifted_maps/map23_PRGn_scaleRev_orientDef_090_darkshift.png","happy","1","23","23","PRGn","orientDef","scaleRev","090","darkshift","",""
"","","","","","html-slider-response","24","159388","0.0-20.0","jsvw0zanag","2","97319","NaN","<div style=""width:500px;"">
                            <p style=""font-size:50px; font-weight:bold;""
                            >happy</p>
                            <div style=""width:240px; margin: auto;"">
                                <img src=""images/shifted_maps/map23_PRGn_scaleRev_orientDef_090_lightshift.png"" style= ""width:200px""alt=""img"">
                            </div>
                        </div>","-72","","0","","","","images/shifted_maps/map23_PRGn_scaleRev_orientDef_090_lightshift.png","happy","1","23","23","PRGn","orientDef","scaleRev","090","lightshift","",""
"","","","","","html-slider-response","25","161089","0.0-21.0","jsvw0zanag","2","97319","NaN","<div style=""width:500px;"">
                            <p style=""font-size:50px; font-weight:bold;""
                            >happy</p>
                            <div style=""width:240px; margin: auto;"">
                                <img src=""images/shifted_maps/map05_PiYG_scaleDef_orientDef_180_lightshift.png"" style= ""width:200px""alt=""img"">
                            </div>
                        </div>","102","","0","","","","images/shifted_maps/map05_PiYG_scaleDef_orientDef_180_lightshift.png","happy","1","05","05","PiYG","orientDef","scaleDef","180","lightshift","",""
"","","","","","html-slider-response","26","162688","0.0-22.0","jsvw0zanag","2","97319","NaN","<div style=""width:500px;"">
                            <p style=""font-size:50px; font-weight:bold;""
                            >happy</p>
                            <div style=""width:240px; margin: auto;"">
                                <img src=""images/shifted_maps/map10_vanimo_scaleRev_orientDef_270_lightshift.png"" style= ""width:200px""alt=""img"">
                            </div>
                        </div>","-80","","0","","","","images/shifted_maps/map10_vanimo_scaleRev_orientDef_270_lightshift.png","happy","1","10","10","vanimo","orientDef","scaleRev","270","lightshift","",""
"","","","","","html-slider-response","27","164488","0.0-23.0","jsvw0zanag","2","97319","NaN","<div style=""width:500px;"">
                            <p style=""font-size:50px; font-weight:bold;""
                            >happy</p>
                            <div style=""width:240px; margin: auto;"">
                                <img src=""images/shifted_maps/map10_vanimo_scaleDef_orientDef_180_lightshift.png"" style= ""width:200px""alt=""img"">
                            </div>
                        </div>","106","","0","","","","images/shifted_maps/map10_vanimo_scaleDef_orientDef_180_lightshift.png","happy","1","10","10","vanimo","orientDef","scaleDef","180","lightshift","",""
"","","","","","html-slider-response","28","166472","0.0-24.0","jsvw0zanag","2","97319","NaN","<div style=""width:500px;"">
                            <p style=""font-size:50px; font-weight:bold;""
                            >happy</p>
                            <div style=""width:240px; margin: auto;"">
                                <img src=""images/shifted_maps/map15_YlOrBr_scaleRev_orientDef_270_darkshift.png"" style= ""width:200px""alt=""img"">
                            </div>
                        </div>","200","","0","","","","images/shifted_maps/map15_YlOrBr_scaleRev_orientDef_270_darkshift.png","happy","1","15","15","YlOrBr","orientDef","scaleRev","270","darkshift","",""
"","","","","","html-slider-response","29","170755","0.0-25.0","jsvw0zanag","2","97319","NaN","<div style=""width:500px;"">
                            <p style=""font-size:50px; font-weight:bold;""
                            >happy</p>
                            <div style=""width:240px; margin: auto;"">
                                <img src=""images/shifted_maps/map02_turbo_scaleRev_orientDef_090_lightshift.png"" style= ""width:200px""alt=""img"">
                            </div>
                        </div>","-83","","0","","","","images/shifted_maps/map02_turbo_scaleRev_orientDef_090_lightshift.png","happy","1","02","02","turbo","orientDef","scaleRev","090","lightshift","",""
"","","","","","html-slider-response","30","172539","0.0-26.0","jsvw0zanag","2","97319","NaN","<div style=""width:500px;"">
                            <p style=""font-size:50px; font-weight:bold;""
                            >happy</p>
                            <div style=""width:240px; margin: auto;"">
                                <img src=""images/shifted_maps/map23_RdYlGn_scaleRev_orientDef_270_darkshift.png"" style= ""width:200px""alt=""img"">
                            </div>
                        </div>","-170","","0","","","","images/shifted_maps/map23_RdYlGn_scaleRev_orientDef_270_darkshift.png","happy","1","23","23","RdYlGn","orientDef","scaleRev","270","darkshift","",""
"","","","","","html-slider-response","31","174090","0.0-27.0","jsvw0zanag","2","97319","NaN","<div style=""width:500px;"">
                            <p style=""font-size:50px; font-weight:bold;""
                            >happy</p>
                            <div style=""width:240px; margin: auto;"">
                                <img src=""images/shifted_maps/map12_RdGy_scaleDef_orientDef_000_darkshift.png"" style= ""width:200px""alt=""img"">
                            </div>
                        </div>","-200","","0","","","","images/shifted_maps/map12_RdGy_scaleDef_orientDef_000_darkshift.png","happy","1","12","12","RdGy","orientDef","scaleDef","000","darkshift","",""
"","","","","","html-slider-response","32","175572","0.0-28.0","jsvw0zanag","2","97319","NaN","<div style=""width:500px;"">
                            <p style=""font-size:50px; font-weight:bold;""
                            >happy</p>
                            <div style=""width:240px; margin: auto;"">
                                <img src=""images/shifted_maps/map12_RdGy_scaleRev_orientDef_090_lightshift.png"" style= ""width:200px""alt=""img"">
                            </div>
                        </div>","-200","","0","","","","images/shifted_maps/map12_RdGy_scaleRev_orientDef_090_lightshift.png","happy","1","12","12","RdGy","orientDef","scaleRev","090","lightshift","",""
"","","","","","html-slider-response","33","177256","0.0-29.0","jsvw0zanag","2","97319","NaN","<div style=""width:500px;"">
                            <p style=""font-size:50px; font-weight:bold;""
                            >happy</p>
                            <div style=""width:240px; margin: auto;"">
                                <img src=""images/shifted_maps/map26_BuGn_scaleDef_orientDef_180_darkshift.png"" style= ""width:200px""alt=""img"">
                            </div>
                        </div>","-50","","0","","","","images/shifted_maps/map26_BuGn_scaleDef_orientDef_180_darkshift.png","happy","1","26","26","BuGn","orientDef","scaleDef","180","darkshift","",""
"","","","","","html-slider-response","34","178776","0.0-30.0","jsvw0zanag","2","97319","NaN","<div style=""width:500px;"">
                            <p style=""font-size:50px; font-weight:bold;""
                            >happy</p>
                            <div style=""width:240px; margin: auto;"">
                                <img src=""images/shifted_maps/map12_BuPu_scaleDef_orientDef_180_darkshift.png"" style= ""width:200px""alt=""img"">
                            </div>
                        </div>","-80","","0","","","","images/shifted_maps/map12_BuPu_scaleDef_orientDef_180_darkshift.png","happy","1","12","12","BuPu","orientDef","scaleDef","180","darkshift","",""
"","","","","","html-slider-response","35","180227","0.0-31.0","jsvw0zanag","2","97319","NaN","<div style=""width:500px;"">
                            <p style=""font-size:50px; font-weight:bold;""
                            >happy</p>
                            <div style=""width:240px; margin: auto;"">
                                <img src=""images/shifted_maps/map10_coolwarm_scaleRev_orientDef_090_lightshift.png"" style= ""width:200px""alt=""img"">
                            </div>
                        </div>","-87","","0","","","","images/shifted_maps/map10_coolwarm_scaleRev_orientDef_090_lightshift.png","happy","1","10","10","coolwarm","orientDef","scaleRev","090","lightshift","",""
"","","","","","html-slider-response","36","181922","0.0-32.0","jsvw0zanag","2","97319","NaN","<div style=""width:500px;"">
                            <p style=""font-size:50px; font-weight:bold;""
                            >happy</p>
                            <div style=""width:240px; margin: auto;"">
                                <img src=""images/shifted_maps/map02_turbo_scaleDef_orientDef_000_darkshift.png"" style= ""width:200px""alt=""img"">
                            </div>
                        </div>","-35","","0","","","","images/shifted_maps/map02_turbo_scaleDef_orientDef_000_darkshift.png","happy","1","02","02","turbo","orientDef","scaleDef","000","darkshift","",""
"","","","","","html-slider-response","37","183540","0.0-33.0","jsvw0zanag","2","97319","NaN","<div style=""width:500px;"">
                            <p style=""font-size:50px; font-weight:bold;""
                            >happy</p>
                            <div style=""width:240px; margin: auto;"">
                                <img src=""images/shifted_maps/map26_PuOr_scaleRev_orientDef_090_lightshift.png"" style= ""width:200px""alt=""img"">
                            </div>
                        </div>","-100","","0","","","","images/shifted_maps/map26_PuOr_scaleRev_orientDef_090_lightshift.png","happy","1","26","26","PuOr","orientDef","scaleRev","090","lightshift","",""
"","","","","","html-slider-response","38","185139","0.0-34.0","jsvw0zanag","2","97319","NaN","<div style=""width:500px;"">
                            <p style=""font-size:50px; font-weight:bold;""
                            >happy</p>
                            <div style=""width:240px; margin: auto;"">
                                <img src=""images/shifted_maps/map05_PiYG_scaleDef_orientDef_180_darkshift.png"" style= ""width:200px""alt=""img"">
                            </div>
                        </div>","-28","","0","","","","images/shifted_maps/map05_PiYG_scaleDef_orientDef_180_darkshift.png","happy","1","05","05","PiYG","orientDef","scaleDef","180","darkshift","",""
"","","","","","html-slider-response","39","187656","0.0-35.0","jsvw0zanag","2","97319","NaN","<div style=""width:500px;"">
                            <p style=""font-size:50px; font-weight:bold;""
                            >happy</p>
                            <div style=""width:240px; margin: auto;"">
                                <img src=""images/shifted_maps/map12_BuPu_scaleDef_orientDef_180_lightshift.png"" style= ""width:200px""alt=""img"">
                            </div>
                        </div>","-25","","0","","","","images/shifted_maps/map12_BuPu_scaleDef_orientDef_180_lightshift.png","happy","1","12","12","BuPu","orientDef","scaleDef","180","lightshift","",""
"","","","","","html-slider-response","40","189523","0.0-36.0","jsvw0zanag","2","97319","NaN","<div style=""width:500px;"">
                            <p style=""font-size:50px; font-weight:bold;""
                            >happy</p>
                            <div style=""width:240px; margin: auto;"">
                                <img src=""images/shifted_maps/map02_Reds_scaleRev_orientDef_270_lightshift.png"" style= ""width:200px""alt=""img"">
                            </div>
                        </div>","-126","","0","","","","images/shifted_maps/map02_Reds_scaleRev_orientDef_270_lightshift.png","happy","1","02","02","Reds","orientDef","scaleRev","270","lightshift","",""
"","","","","","html-slider-response","41","190976","0.0-37.0","jsvw0zanag","2","97319","NaN","<div style=""width:500px;"">
                            <p style=""font-size:50px; font-weight:bold;""
                            >happy</p>
                            <div style=""width:240px; margin: auto;"">
                                <img src=""images/shifted_maps/map23_PRGn_scaleDef_orientDef_000_lightshift.png"" style= ""width:200px""alt=""img"">
                            </div>
                        </div>","-116","","0","","","","images/shifted_maps/map23_PRGn_scaleDef_orientDef_000_lightshift.png","happy","1","23","23","PRGn","orientDef","scaleDef","000","lightshift","",""
"","","","","","html-slider-response","42","192491","0.0-38.0","jsvw0zanag","2","97319","NaN","<div style=""width:500px;"">
                            <p style=""font-size:50px; font-weight:bold;""
                            >happy</p>
                            <div style=""width:240px; margin: auto;"">
                                <img src=""images/shifted_maps/map02_turbo_scaleRev_orientDef_090_darkshift.png"" style= ""width:200px""alt=""img"">
                            </div>
                        </div>","-113","","0","","","","images/shifted_maps/map02_turbo_scaleRev_orientDef_090_darkshift.png","happy","1","02","02","turbo","orientDef","scaleRev","090","darkshift","",""
"","","","","","html-slider-response","43","193727","0.0-39.0","jsvw0zanag","2","97319","NaN","<div style=""width:500px;"">
                            <p style=""font-size:50px; font-weight:bold;""
                            >happy</p>
                            <div style=""width:240px; margin: auto;"">
                                <img src=""images/shifted_maps/map05_PiYG_scaleRev_orientDef_270_darkshift.png"" style= ""width:200px""alt=""img"">
                            </div>
                        </div>","-130","","0","","","","images/shifted_maps/map05_PiYG_scaleRev_orientDef_270_darkshift.png","happy","1","05","05","PiYG","orientDef","scaleRev","270","darkshift","",""
"","","","","","html-slider-response","44","195489","0.0-40.0","jsvw0zanag","2","97319","NaN","<div style=""width:500px;"">
                            <p style=""font-size:50px; font-weight:bold;""
                            >happy</p>
                            <div style=""width:240px; margin: auto;"">
                                <img src=""images/shifted_maps/map27_managua_scaleRev_orientDef_270_darkshift.png"" style= ""width:200px""alt=""img"">
                            </div>
                        </div>","122","","0","","","","images/shifted_maps/map27_managua_scaleRev_orientDef_270_darkshift.png","happy","1","27","27","managua","orientDef","scaleRev","270","darkshift","",""
"","","","","","html-slider-response","45","196989","0.0-41.0","jsvw0zanag","2","97319","NaN","<div style=""width:500px;"">
                            <p style=""font-size:50px; font-weight:bold;""
                            >happy</p>
                            <div style=""width:240px; margin: auto;"">
                                <img src=""images/shifted_maps/map07_PuRd_scaleDef_orientDef_180_lightshift.png"" style= ""width:200px""alt=""img"">
                            </div>
                        </div>","39","","0","","","","images/shifted_maps/map07_PuRd_scaleDef_orientDef_180_lightshift.png","happy","1","07","07","PuRd","orientDef","scaleDef","180","lightshift","",""
"","","","","","html-slider-response","46","198256","0.0-42.0","jsvw0zanag","2","97319","NaN","<div style=""width:500px;"">
                            <p style=""font-size:50px; font-weight:bold;""
                            >happy</p>
                            <div style=""width:240px; margin: auto;"">
                                <img src=""images/shifted_maps/map26_PuOr_scaleDef_orientDef_000_darkshift.png"" style= ""width:200px""alt=""img"">
                            </div>
                        </div>","-188","","0","","","","images/shifted_maps/map26_PuOr_scaleDef_orientDef_000_darkshift.png","happy","1","26","26","PuOr","orientDef","scaleDef","000","darkshift","",""
"","","","","","html-slider-response","47","200039","0.0-43.0","jsvw0zanag","2","97319","NaN","<div style=""width:500px;"">
                            <p style=""font-size:50px; font-weight:bold;""
                            >happy</p>
                            <div style=""width:240px; margin: auto;"">
                                <img src=""images/shifted_maps/map23_RdYlGn_scaleRev_orientDef_270_lightshift.png"" style= ""width:200px""alt=""img"">
                            </div>
                        </div>","-147","","0","","","","images/shifted_maps/map23_RdYlGn_scaleRev_orientDef_270_lightshift.png","happy","1","23","23","RdYlGn","orientDef","scaleRev","270","lightshift","",""
"","","","","","html-slider-response","48","201391","0.0-44.0","jsvw0zanag","2","97319","NaN","<div style=""width:500px;"">
                            <p style=""font-size:50px; font-weight:bold;""
                            >happy</p>
                            <div style=""width:240px; margin: auto;"">
                                <img src=""images/shifted_maps/map13_magma_scaleRev_orientDef_270_darkshift.png"" style= ""width:200px""alt=""img"">
                            </div>
                        </div>","-136","","0","","","","images/shifted_maps/map13_magma_scaleRev_orientDef_270_darkshift.png","happy","1","13","13","magma","orientDef","scaleRev","270","darkshift","",""
"","","","","","html-slider-response","49","203256","0.0-45.0","jsvw0zanag","2","97319","NaN","<div style=""width:500px;"">
                            <p style=""font-size:50px; font-weight:bold;""
                            >happy</p>
                            <div style=""width:240px; margin: auto;"">
                                <img src=""images/shifted_maps/map07_Greys_scaleRev_orientDef_090_darkshift.png"" style= ""width:200px""alt=""img"">
                            </div>
                        </div>","-200","","0","","","","images/shifted_maps/map07_Greys_scaleRev_orientDef_090_darkshift.png","happy","1","07","07","Greys","orientDef","scaleRev","090","darkshift","",""
"","","","","","html-slider-response","50","204889","0.0-46.0","jsvw0zanag","2","97319","NaN","<div style=""width:500px;"">
                            <p style=""font-size:50px; font-weight:bold;""
                            >happy</p>
                            <div style=""width:240px; margin: auto;"">
                                <img src=""images/shifted_maps/map15_YlOrBr_scaleDef_orientDef_180_lightshift.png"" style= ""width:200px""alt=""img"">
                            </div>
                        </div>","200","","0","","","","images/shifted_maps/map15_YlOrBr_scaleDef_orientDef_180_lightshift.png","happy","1","15","15","YlOrBr","orientDef","scaleDef","180","lightshift","",""
"","","","","","html-slider-response","51","206590","0.0-47.0","jsvw0zanag","2","97319","NaN","<div style=""width:500px;"">
                            <p style=""font-size:50px; font-weight:bold;""
                            >happy</p>
                            <div style=""width:240px; margin: auto;"">
                                <img src=""images/shifted_maps/map13_magma_scaleDef_orientDef_180_lightshift.png"" style= ""width:200px""alt=""img"">
                            </div>
                        </div>","-200","","0","","","","images/shifted_maps/map13_magma_scaleDef_orientDef_180_lightshift.png","happy","1","13","13","magma","orientDef","scaleDef","180","lightshift","",""
"","","","","","html-slider-response","52","208072","0.0-48.0","jsvw0zanag","2","97319","NaN","<div style=""width:500px;"">
                            <p style=""font-size:50px; font-weight:bold;""
                            >happy</p>
                            <div style=""width:240px; margin: auto;"">
                                <img src=""images/shifted_maps/map23_PRGn_scaleDef_orientDef_000_darkshift.png"" style= ""width:200px""alt=""img"">
                            </div>
                        </div>","-83","","0","","","","images/shifted_maps/map23_PRGn_scaleDef_orientDef_000_darkshift.png","happy","1","23","23","PRGn","orientDef","scaleDef","000","darkshift","",""
"","","","","","html-slider-response","53","209305","0.0-49.0","jsvw0zanag","2","97319","NaN","<div style=""width:500px;"">
                            <p style=""font-size:50px; font-weight:bold;""
                            >happy</p>
                            <div style=""width:240px; margin: auto;"">
                                <img src=""images/shifted_maps/map26_BuGn_scaleRev_orientDef_270_darkshift.png"" style= ""width:200px""alt=""img"">
                            </div>
                        </div>","-39","","0","","","","images/shifted_maps/map26_BuGn_scaleRev_orientDef_270_darkshift.png","happy","1","26","26","BuGn","orientDef","scaleRev","270","darkshift","",""
"","","","","","html-slider-response","54","210939","0.0-50.0","jsvw0zanag","2","97319","NaN","<div style=""width:500px;"">
                            <p style=""font-size:50px; font-weight:bold;""
                            >happy</p>
                            <div style=""width:240px; margin: auto;"">
                                <img src=""images/shifted_maps/map26_PuOr_scaleRev_orientDef_090_darkshift.png"" style= ""width:200px""alt=""img"">
                            </div>
                        </div>","-26","","0","","","","images/shifted_maps/map26_PuOr_scaleRev_orientDef_090_darkshift.png","happy","1","26","26","PuOr","orientDef","scaleRev","090","darkshift","",""
"","","","","","html-slider-response","55","212339","0.0-51.0","jsvw0zanag","2","97319","NaN","<div style=""width:500px;"">
                            <p style=""font-size:50px; font-weight:bold;""
                            >happy</p>
                            <div style=""width:240px; margin: auto;"">
                                <img src=""images/shifted_maps/map12_BuPu_scaleRev_orientDef_270_darkshift.png"" style= ""width:200px""alt=""img"">
                            </div>
                        </div>","-46","","0","","","","images/shifted_maps/map12_BuPu_scaleRev_orientDef_270_darkshift.png","happy","1","12","12","BuPu","orientDef","scaleRev","270","darkshift","",""
"","","","","","html-slider-response","56","213789","0.0-52.0","jsvw0zanag","2","97319","NaN","<div style=""width:500px;"">
                            <p style=""font-size:50px; font-weight:bold;""
                            >happy</p>
                            <div style=""width:240px; margin: auto;"">
                                <img src=""images/shifted_maps/map05_PuBu_scaleDef_orientDef_000_darkshift.png"" style= ""width:200px""alt=""img"">
                            </div>
                        </div>","-71","","0","","","","images/shifted_maps/map05_PuBu_scaleDef_orientDef_000_darkshift.png","happy","1","05","05","PuBu","orientDef","scaleDef","000","darkshift","",""
"","","","","","html-slider-response","57","215190","0.0-53.0","jsvw0zanag","2","97319","NaN","<div style=""width:500px;"">
                            <p style=""font-size:50px; font-weight:bold;""
                            >happy</p>
                            <div style=""width:240px; margin: auto;"">
                                <img src=""images/shifted_maps/map05_PuBu_scaleDef_orientDef_000_lightshift.png"" style= ""width:200px""alt=""img"">
                            </div>
                        </div>","-62","","0","","","","images/shifted_maps/map05_PuBu_scaleDef_orientDef_000_lightshift.png","happy","1","05","05","PuBu","orientDef","scaleDef","000","lightshift","",""
"","","","","","html-button-response","58","216911","0.0-54.0","jsvw0zanag","2","97319","1219","<p>You are doing great!<br></br> You are halway done with the current block. When you are ready to continue, click the 'Continue' button.</p>","0","","","","","","","","","","","","","","","","",""
"","","","","","html-slider-response","59","218840","0.0-55.0","jsvw0zanag","2","97319","NaN","<div style=""width:500px;"">
                            <p style=""font-size:50px; font-weight:bold;""
                            >happy</p>
                            <div style=""width:240px; margin: auto;"">
                                <img src=""images/shifted_maps/map15_cividis_scaleRev_orientDef_090_lightshift.png"" style= ""width:200px""alt=""img"">
                            </div>
                        </div>","118","","0","","","","images/shifted_maps/map15_cividis_scaleRev_orientDef_090_lightshift.png","happy","1","15","15","cividis","orientDef","scaleRev","090","lightshift","",""
"","","","","","html-slider-response","60","220306","0.0-56.0","jsvw0zanag","2","97319","NaN","<div style=""width:500px;"">
                            <p style=""font-size:50px; font-weight:bold;""
                            >happy</p>
                            <div style=""width:240px; margin: auto;"">
                                <img src=""images/shifted_maps/map07_PuRd_scaleRev_orientDef_270_lightshift.png"" style= ""width:200px""alt=""img"">
                            </div>
                        </div>","-62","","0","","","","images/shifted_maps/map07_PuRd_scaleRev_orientDef_270_lightshift.png","happy","1","07","07","PuRd","orientDef","scaleRev","270","lightshift","",""
"","","","","","html-slider-response","61","222071","0.0-57.0","jsvw0zanag","2","97319","NaN","<div style=""width:500px;"">
                            <p style=""font-size:50px; font-weight:bold;""
                            >happy</p>
                            <div style=""width:240px; margin: auto;"">
                                <img src=""images/shifted_maps/map27_berlin_scaleRev_orientDef_090_darkshift.png"" style= ""width:200px""alt=""img"">
                            </div>
                        </div>","-56","","0","","","","images/shifted_maps/map27_berlin_scaleRev_orientDef_090_darkshift.png","happy","1","27","27","berlin","orientDef","scaleRev","090","darkshift","",""
"","","","","","html-slider-response","62","223358","0.0-58.0","jsvw0zanag","2","97319","NaN","<div style=""width:500px;"">
                            <p style=""font-size:50px; font-weight:bold;""
                            >happy</p>
                            <div style=""width:240px; margin: auto;"">
                                <img src=""images/shifted_maps/map10_vanimo_scaleRev_orientDef_270_darkshift.png"" style= ""width:200px""alt=""img"">
                            </div>
                        </div>","-91","","0","","","","images/shifted_maps/map10_vanimo_scaleRev_orientDef_270_darkshift.png","happy","1","10","10","vanimo","orientDef","scaleRev","270","darkshift","",""
"","","","","","html-slider-response","63","224555","0.0-59.0","jsvw0zanag","2","97319","NaN","<div style=""width:500px;"">
                            <p style=""font-size:50px; font-weight:bold;""
                            >happy</p>
                            <div style=""width:240px; margin: auto;"">
                                <img src=""images/shifted_maps/map27_berlin_scaleDef_orientDef_000_lightshift.png"" style= ""width:200px""alt=""img"">
                            </div>
                        </div>","-73","","0","","","","images/shifted_maps/map27_berlin_scaleDef_orientDef_000_lightshift.png","happy","1","27","27","berlin","orientDef","scaleDef","000","lightshift","",""
"","","","","","html-slider-response","64","226154","0.0-60.0","jsvw0zanag","2","97319","NaN","<div style=""width:500px;"">
                            <p style=""font-size:50px; font-weight:bold;""
                            >happy</p>
                            <div style=""width:240px; margin: auto;"">
                                <img src=""images/shifted_maps/map07_PuRd_scaleRev_orientDef_270_darkshift.png"" style= ""width:200px""alt=""img"">
                            </div>
                        </div>","16","","0","","","","images/shifted_maps/map07_PuRd_scaleRev_orientDef_270_darkshift.png","happy","1","07","07","PuRd","orientDef","scaleRev","270","darkshift","",""
"","","","","","html-slider-response","65","227506","0.0-61.0","jsvw0zanag","2","97319","NaN","<div style=""width:500px;"">
                            <p style=""font-size:50px; font-weight:bold;""
                            >happy</p>
                            <div style=""width:240px; margin: auto;"">
                                <img src=""images/shifted_maps/map05_PuBu_scaleRev_orientDef_090_lightshift.png"" style= ""width:200px""alt=""img"">
                            </div>
                        </div>","-54","","0","","","","images/shifted_maps/map05_PuBu_scaleRev_orientDef_090_lightshift.png","happy","1","05","05","PuBu","orientDef","scaleRev","090","lightshift","",""
"","","","","","html-slider-response","66","229021","0.0-62.0","jsvw0zanag","2","97319","NaN","<div style=""width:500px;"">
                            <p style=""font-size:50px; font-weight:bold;""
                            >happy</p>
                            <div style=""width:240px; margin: auto;"">
                                <img src=""images/shifted_maps/map13_magma_scaleDef_orientDef_180_darkshift.png"" style= ""width:200px""alt=""img"">
                            </div>
                        </div>","48","","0","","","","images/shifted_maps/map13_magma_scaleDef_orientDef_180_darkshift.png","happy","1","13","13","magma","orientDef","scaleDef","180","darkshift","",""
"","","","","","html-slider-response","67","230371","0.0-63.0","jsvw0zanag","2","97319","NaN","<div style=""width:500px;"">
                            <p style=""font-size:50px; font-weight:bold;""
                            >happy</p>
                            <div style=""width:240px; margin: auto;"">
                                <img src=""images/shifted_maps/map13_BrBG_scaleRev_orientDef_090_lightshift.png"" style= ""width:200px""alt=""img"">
                            </div>
                        </div>","-68","","0","","","","images/shifted_maps/map13_BrBG_scaleRev_orientDef_090_lightshift.png","happy","1","13","13","BrBG","orientDef","scaleRev","090","lightshift","",""
"","","","","","html-slider-response","68","232356","0.0-64.0","jsvw0zanag","2","97319","NaN","<div style=""width:500px;"">
                            <p style=""font-size:50px; font-weight:bold;""
                            >happy</p>
                            <div style=""width:240px; margin: auto;"">
                                <img src=""images/shifted_maps/map27_managua_scaleRev_orientDef_270_lightshift.png"" style= ""width:200px""alt=""img"">
                            </div>
                        </div>","-74","","0","","","","images/shifted_maps/map27_managua_scaleRev_orientDef_270_lightshift.png","happy","1","27","27","managua","orientDef","scaleRev","270","lightshift","",""
"","","","","","html-slider-response","69","233926","0.0-65.0","jsvw0zanag","2","97319","NaN","<div style=""width:500px;"">
                            <p style=""font-size:50px; font-weight:bold;""
                            >happy</p>
                            <div style=""width:240px; margin: auto;"">
                                <img src=""images/shifted_maps/map27_berlin_scaleDef_orientDef_000_darkshift.png"" style= ""width:200px""alt=""img"">
                            </div>
                        </div>","-70","","0","","","","images/shifted_maps/map27_berlin_scaleDef_orientDef_000_darkshift.png","happy","1","27","27","berlin","orientDef","scaleDef","000","darkshift","",""
"","","","","","html-slider-response","70","235056","0.0-66.0","jsvw0zanag","2","97319","NaN","<div style=""width:500px;"">
                            <p style=""font-size:50px; font-weight:bold;""
                            >happy</p>
                            <div style=""width:240px; margin: auto;"">
                                <img src=""images/shifted_maps/map10_coolwarm_scaleRev_orientDef_090_darkshift.png"" style= ""width:200px""alt=""img"">
                            </div>
                        </div>","-89","","0","","","","images/shifted_maps/map10_coolwarm_scaleRev_orientDef_090_darkshift.png","happy","1","10","10","coolwarm","orientDef","scaleRev","090","darkshift","",""
"","","","","","html-slider-response","71","236357","0.0-67.0","jsvw0zanag","2","97319","NaN","<div style=""width:500px;"">
                            <p style=""font-size:50px; font-weight:bold;""
                            >happy</p>
                            <div style=""width:240px; margin: auto;"">
                                <img src=""images/shifted_maps/map02_turbo_scaleDef_orientDef_000_lightshift.png"" style= ""width:200px""alt=""img"">
                            </div>
                        </div>","-80","","0","","","","images/shifted_maps/map02_turbo_scaleDef_orientDef_000_lightshift.png","happy","1","02","02","turbo","orientDef","scaleDef","000","lightshift","",""
"","","","","","html-slider-response","72","238024","0.0-68.0","jsvw0zanag","2","97319","NaN","<div style=""width:500px;"">
                            <p style=""font-size:50px; font-weight:bold;""
                            >happy</p>
                            <div style=""width:240px; margin: auto;"">
                                <img src=""images/shifted_maps/map15_cividis_scaleDef_orientDef_000_darkshift.png"" style= ""width:200px""alt=""img"">
                            </div>
                        </div>","131","","0","","","","images/shifted_maps/map15_cividis_scaleDef_orientDef_000_darkshift.png","happy","1","15","15","cividis","orientDef","scaleDef","000","darkshift","",""
"","","","","","html-slider-response","73","239624","0.0-69.0","jsvw0zanag","2","97319","NaN","<div style=""width:500px;"">
                            <p style=""font-size:50px; font-weight:bold;""
                            >happy</p>
                            <div style=""width:240px; margin: auto;"">
                                <img src=""images/shifted_maps/map27_berlin_scaleRev_orientDef_090_lightshift.png"" style= ""width:200px""alt=""img"">
                            </div>
                        </div>","-67","","0","","","","images/shifted_maps/map27_berlin_scaleRev_orientDef_090_lightshift.png","happy","1","27","27","berlin","orientDef","scaleRev","090","lightshift","",""
"","","","","","html-slider-response","74","240872","0.0-70.0","jsvw0zanag","2","97319","NaN","<div style=""width:500px;"">
                            <p style=""font-size:50px; font-weight:bold;""
                            >happy</p>
                            <div style=""width:240px; margin: auto;"">
                                <img src=""images/shifted_maps/map07_Greys_scaleDef_orientDef_000_darkshift.png"" style= ""width:200px""alt=""img"">
                            </div>
                        </div>","-200","","0","","","","images/shifted_maps/map07_Greys_scaleDef_orientDef_000_darkshift.png","happy","1","07","07","Greys","orientDef","scaleDef","000","darkshift","",""
"","","","","","html-slider-response","75","242388","0.0-71.0","jsvw0zanag","2","97319","NaN","<div style=""width:500px;"">
                            <p style=""font-size:50px; font-weight:bold;""
                            >happy</p>
                            <div style=""width:240px; margin: auto;"">
                                <img src=""images/shifted_maps/map07_PuRd_scaleDef_orientDef_180_darkshift.png"" style= ""width:200px""alt=""img"">
                            </div>
                        </div>","-71","","0","","","","images/shifted_maps/map07_PuRd_scaleDef_orientDef_180_darkshift.png","happy","1","07","07","PuRd","orientDef","scaleDef","180","darkshift","",""
"","","","","","html-slider-response","76","244937","0.0-72.0","jsvw0zanag","2","97319","NaN","<div style=""width:500px;"">
                            <p style=""font-size:50px; font-weight:bold;""
                            >happy</p>
                            <div style=""width:240px; margin: auto;"">
                                <img src=""images/shifted_maps/map13_BrBG_scaleRev_orientDef_090_darkshift.png"" style= ""width:200px""alt=""img"">
                            </div>
                        </div>","-24","","0","","","","images/shifted_maps/map13_BrBG_scaleRev_orientDef_090_darkshift.png","happy","1","13","13","BrBG","orientDef","scaleRev","090","darkshift","",""
"","","","","","html-slider-response","77","246357","0.0-73.0","jsvw0zanag","2","97319","NaN","<div style=""width:500px;"">
                            <p style=""font-size:50px; font-weight:bold;""
                            >happy</p>
                            <div style=""width:240px; margin: auto;"">
                                <img src=""images/shifted_maps/map05_PuBu_scaleRev_orientDef_090_darkshift.png"" style= ""width:200px""alt=""img"">
                            </div>
                        </div>","-93","","0","","","","images/shifted_maps/map05_PuBu_scaleRev_orientDef_090_darkshift.png","happy","1","05","05","PuBu","orientDef","scaleRev","090","darkshift","",""
"","","","","","html-slider-response","78","247655","0.0-74.0","jsvw0zanag","2","97319","NaN","<div style=""width:500px;"">
                            <p style=""font-size:50px; font-weight:bold;""
                            >happy</p>
                            <div style=""width:240px; margin: auto;"">
                                <img src=""images/shifted_maps/map12_BuPu_scaleRev_orientDef_270_lightshift.png"" style= ""width:200px""alt=""img"">
                            </div>
                        </div>","-114","","0","","","","images/shifted_maps/map12_BuPu_scaleRev_orientDef_270_lightshift.png","happy","1","12","12","BuPu","orientDef","scaleRev","270","lightshift","",""
"","","","","","html-slider-response","79","249309","0.0-75.0","jsvw0zanag","2","97319","NaN","<div style=""width:500px;"">
                            <p style=""font-size:50px; font-weight:bold;""
                            >happy</p>
                            <div style=""width:240px; margin: auto;"">
                                <img src=""images/shifted_maps/map12_RdGy_scaleRev_orientDef_090_darkshift.png"" style= ""width:200px""alt=""img"">
                            </div>
                        </div>","-64","","0","","","","images/shifted_maps/map12_RdGy_scaleRev_orientDef_090_darkshift.png","happy","1","12","12","RdGy","orientDef","scaleRev","090","darkshift","",""
"","","","","","html-slider-response","80","250622","0.0-76.0","jsvw0zanag","2","97319","NaN","<div style=""width:500px;"">
                            <p style=""font-size:50px; font-weight:bold;""
                            >happy</p>
                            <div style=""width:240px; margin: auto;"">
                                <img src=""images/shifted_maps/map13_BrBG_scaleDef_orientDef_000_darkshift.png"" style= ""width:200px""alt=""img"">
                            </div>
                        </div>","-102","","0","","","","images/shifted_maps/map13_BrBG_scaleDef_orientDef_000_darkshift.png","happy","1","13","13","BrBG","orientDef","scaleDef","000","darkshift","",""
"","","","","","html-slider-response","81","252124","0.0-77.0","jsvw0zanag","2","97319","NaN","<div style=""width:500px;"">
                            <p style=""font-size:50px; font-weight:bold;""
                            >happy</p>
                            <div style=""width:240px; margin: auto;"">
                                <img src=""images/shifted_maps/map07_Greys_scaleDef_orientDef_000_lightshift.png"" style= ""width:200px""alt=""img"">
                            </div>
                        </div>","-200","","0","","","","images/shifted_maps/map07_Greys_scaleDef_orientDef_000_lightshift.png","happy","1","07","07","Greys","orientDef","scaleDef","000","lightshift","",""
"","","","","","html-slider-response","82","253621","0.0-78.0","jsvw0zanag","2","97319","NaN","<div style=""width:500px;"">
                            <p style=""font-size:50px; font-weight:bold;""
                            >happy</p>
                            <div style=""width:240px; margin: auto;"">
                                <img src=""images/shifted_maps/map12_RdGy_scaleDef_orientDef_000_lightshift.png"" style= ""width:200px""alt=""img"">
                            </div>
                        </div>","-52","","0","","","","images/shifted_maps/map12_RdGy_scaleDef_orientDef_000_lightshift.png","happy","1","12","12","RdGy","orientDef","scaleDef","000","lightshift","",""
"","","","","","html-slider-response","83","256573","0.0-79.0","jsvw0zanag","2","97319","NaN","<div style=""width:500px;"">
                            <p style=""font-size:50px; font-weight:bold;""
                            >happy</p>
                            <div style=""width:240px; margin: auto;"">
                                <img src=""images/shifted_maps/map27_managua_scaleDef_orientDef_180_lightshift.png"" style= ""width:200px""alt=""img"">
                            </div>
                        </div>","-34","","0","","","","images/shifted_maps/map27_managua_scaleDef_orientDef_180_lightshift.png","happy","1","27","27","managua","orientDef","scaleDef","180","lightshift","",""
"","","","","","html-slider-response","84","257926","0.0-80.0","jsvw0zanag","2","97319","NaN","<div style=""width:500px;"">
                            <p style=""font-size:50px; font-weight:bold;""
                            >happy</p>
                            <div style=""width:240px; margin: auto;"">
                                <img src=""images/shifted_maps/map15_YlOrBr_scaleDef_orientDef_180_darkshift.png"" style= ""width:200px""alt=""img"">
                            </div>
                        </div>","200","","0","","","","images/shifted_maps/map15_YlOrBr_scaleDef_orientDef_180_darkshift.png","happy","1","15","15","YlOrBr","orientDef","scaleDef","180","darkshift","",""
"","","","","","html-slider-response","85","259524","0.0-81.0","jsvw0zanag","2","97319","NaN","<div style=""width:500px;"">
                            <p style=""font-size:50px; font-weight:bold;""
                            >happy</p>
                            <div style=""width:240px; margin: auto;"">
                                <img src=""images/shifted_maps/map26_PuOr_scaleDef_orientDef_000_lightshift.png"" style= ""width:200px""alt=""img"">
                            </div>
                        </div>","77","","0","","","","images/shifted_maps/map26_PuOr_scaleDef_orientDef_000_lightshift.png","happy","1","26","26","PuOr","orientDef","scaleDef","000","lightshift","",""
"","","","","","html-slider-response","86","260987","0.0-82.0","jsvw0zanag","2","97319","NaN","<div style=""width:500px;"">
                            <p style=""font-size:50px; font-weight:bold;""
                            >happy</p>
                            <div style=""width:240px; margin: auto;"">
                                <img src=""images/shifted_maps/map02_Reds_scaleDef_orientDef_180_darkshift.png"" style= ""width:200px""alt=""img"">
                            </div>
                        </div>","-99","","0","","","","images/shifted_maps/map02_Reds_scaleDef_orientDef_180_darkshift.png","happy","1","02","02","Reds","orientDef","scaleDef","180","darkshift","",""
"","","","","","html-slider-response","87","262322","0.0-83.0","jsvw0zanag","2","97319","NaN","<div style=""width:500px;"">
                            <p style=""font-size:50px; font-weight:bold;""
                            >happy</p>
                            <div style=""width:240px; margin: auto;"">
                                <img src=""images/shifted_maps/map02_Reds_scaleRev_orientDef_270_darkshift.png"" style= ""width:200px""alt=""img"">
                            </div>
                        </div>","-191","","0","","","","images/shifted_maps/map02_Reds_scaleRev_orientDef_270_darkshift.png","happy","1","02","02","Reds","orientDef","scaleRev","270","darkshift","",""
"","","","","","html-slider-response","88","263891","0.0-84.0","jsvw0zanag","2","97319","NaN","<div style=""width:500px;"">
                            <p style=""font-size:50px; font-weight:bold;""
                            >happy</p>
                            <div style=""width:240px; margin: auto;"">
                                <img src=""images/shifted_maps/map15_cividis_scaleRev_orientDef_090_darkshift.png"" style= ""width:200px""alt=""img"">
                            </div>
                        </div>","-106","","0","","","","images/shifted_maps/map15_cividis_scaleRev_orientDef_090_darkshift.png","happy","1","15","15","cividis","orientDef","scaleRev","090","darkshift","",""
"","","","","","html-slider-response","89","265089","0.0-85.0","jsvw0zanag","2","97319","NaN","<div style=""width:500px;"">
                            <p style=""font-size:50px; font-weight:bold;""
                            >happy</p>
                            <div style=""width:240px; margin: auto;"">
                                <img src=""images/shifted_maps/map10_coolwarm_scaleDef_orientDef_000_darkshift.png"" style= ""width:200px""alt=""img"">
                            </div>
                        </div>","-79","","0","","","","images/shifted_maps/map10_coolwarm_scaleDef_orientDef_000_darkshift.png","happy","1","10","10","coolwarm","orientDef","scaleDef","000","darkshift","",""
"","","","","","html-slider-response","90","266393","0.0-86.0","jsvw0zanag","2","97319","NaN","<div style=""width:500px;"">
                            <p style=""font-size:50px; font-weight:bold;""
                            >happy</p>
                            <div style=""width:240px; margin: auto;"">
                                <img src=""images/shifted_maps/map15_cividis_scaleDef_orientDef_000_lightshift.png"" style= ""width:200px""alt=""img"">
                            </div>
                        </div>","-79","","0","","","","images/shifted_maps/map15_cividis_scaleDef_orientDef_000_lightshift.png","happy","1","15","15","cividis","orientDef","scaleDef","000","lightshift","",""
"","","","","","html-slider-response","91","267790","0.0-87.0","jsvw0zanag","2","97319","NaN","<div style=""width:500px;"">
                            <p style=""font-size:50px; font-weight:bold;""
                            >happy</p>
                            <div style=""width:240px; margin: auto;"">
                                <img src=""images/shifted_maps/map10_vanimo_scaleDef_orientDef_180_darkshift.png"" style= ""width:200px""alt=""img"">
                            </div>
                        </div>","-87","","0","","","","images/shifted_maps/map10_vanimo_scaleDef_orientDef_180_darkshift.png","happy","1","10","10","vanimo","orientDef","scaleDef","180","darkshift","",""
"","","","","","html-slider-response","92","268942","0.0-88.0","jsvw0zanag","2","97319","NaN","<div style=""width:500px;"">
                            <p style=""font-size:50px; font-weight:bold;""
                            >happy</p>
                            <div style=""width:240px; margin: auto;"">
                                <img src=""images/shifted_maps/map26_BuGn_scaleRev_orientDef_270_lightshift.png"" style= ""width:200px""alt=""img"">
                            </div>
                        </div>","-98","","0","","","","images/shifted_maps/map26_BuGn_scaleRev_orientDef_270_lightshift.png","happy","1","26","26","BuGn","orientDef","scaleRev","270","lightshift","",""
"","","","","","html-slider-response","93","270089","0.0-89.0","jsvw0zanag","2","97319","NaN","<div style=""width:500px;"">
                            <p style=""font-size:50px; font-weight:bold;""
                            >happy</p>
                            <div style=""width:240px; margin: auto;"">
                                <img src=""images/shifted_maps/map23_RdYlGn_scaleDef_orientDef_180_darkshift.png"" style= ""width:200px""alt=""img"">
                            </div>
                        </div>","-65","","0","","","","images/shifted_maps/map23_RdYlGn_scaleDef_orientDef_180_darkshift.png","happy","1","23","23","RdYlGn","orientDef","scaleDef","180","darkshift","",""
"","","","","","html-slider-response","94","271821","0.0-90.0","jsvw0zanag","2","97319","NaN","<div style=""width:500px;"">
                            <p style=""font-size:50px; font-weight:bold;""
                            >happy</p>
                            <div style=""width:240px; margin: auto;"">
                                <img src=""images/shifted_maps/map15_YlOrBr_scaleRev_orientDef_270_lightshift.png"" style= ""width:200px""alt=""img"">
                            </div>
                        </div>","200","","0","","","","images/shifted_maps/map15_YlOrBr_scaleRev_orientDef_270_lightshift.png","happy","1","15","15","YlOrBr","orientDef","scaleRev","270","lightshift","",""
"","","","","","html-slider-response","95","273240","0.0-91.0","jsvw0zanag","2","97319","NaN","<div style=""width:500px;"">
                            <p style=""font-size:50px; font-weight:bold;""
                            >happy</p>
                            <div style=""width:240px; margin: auto;"">
                                <img src=""images/shifted_maps/map02_Reds_scaleDef_orientDef_180_lightshift.png"" style= ""width:200px""alt=""img"">
                            </div>
                        </div>","-159","","0","","","","images/shifted_maps/map02_Reds_scaleDef_orientDef_180_lightshift.png","happy","1","02","02","Reds","orientDef","scaleDef","180","lightshift","",""
"","","","","","html-slider-response","96","274571","0.0-92.0","jsvw0zanag","2","97319","NaN","<div style=""width:500px;"">
                            <p style=""font-size:50px; font-weight:bold;""
                            >happy</p>
                            <div style=""width:240px; margin: auto;"">
                                <img src=""images/shifted_maps/map10_coolwarm_scaleDef_orientDef_000_lightshift.png"" style= ""width:200px""alt=""img"">
                            </div>
                        </div>","-66","","0","","","","images/shifted_maps/map10_coolwarm_scaleDef_orientDef_000_lightshift.png","happy","1","10","10","coolwarm","orientDef","scaleDef","000","lightshift","",""
"","","","","","html-slider-response","97","275921","0.0-93.0","jsvw0zanag","2","97319","NaN","<div style=""width:500px;"">
                            <p style=""font-size:50px; font-weight:bold;""
                            >happy</p>
                            <div style=""width:240px; margin: auto;"">
                                <img src=""images/shifted_maps/map23_RdYlGn_scaleDef_orientDef_180_lightshift.png"" style= ""width:200px""alt=""img"">
                            </div>
                        </div>","-53","","0","","","","images/shifted_maps/map23_RdYlGn_scaleDef_orientDef_180_lightshift.png","happy","1","23","23","RdYlGn","orientDef","scaleDef","180","lightshift","",""
"","","","","","html-slider-response","98","278188","0.0-94.0","jsvw0zanag","2","97319","NaN","<div style=""width:500px;"">
                            <p style=""font-size:50px; font-weight:bold;""
                            >happy</p>
                            <div style=""width:240px; margin: auto;"">
                                <img src=""images/shifted_maps/map13_magma_scaleRev_orientDef_270_lightshift.png"" style= ""width:200px""alt=""img"">
                            </div>
                        </div>","200","","0","","","","images/shifted_maps/map13_magma_scaleRev_orientDef_270_lightshift.png","happy","1","13","13","magma","orientDef","scaleRev","270","lightshift","",""
"","","","","","html-button-response","99","281194","0.0-95.0","jsvw0zanag","2","97319","2504","<p>Great Job! You've finished block 1.<br></br> You have 4 block(s) left to go.<br></br></p>","0","","","","","","","","","","","","","","","","",""
"","","","","","html-button-response","100","282677","0.0-96.0","jsvw0zanag","2","97319","1482","<p>In this block of trials, you will be asked to rate how much you associate each map with:</p > <p style = 'font-size:150%; font-weight: bold'>angry</p><br></br>","0","","","","","","","","","","","","","","","","",""
"","","","","","html-slider-response","101","284421","0.0-97.0","jsvw0zanag","2","97319","NaN","<div style=""width:500px;"">
                            <p style=""font-size:50px; font-weight:bold;""
                            >angry</p>
                            <div style=""width:240px; margin: auto;"">
                                <img src=""images/shifted_maps/map07_PuRd_scaleDef_orientDef_180_darkshift.png"" style= ""width:200px""alt=""img"">
                            </div>
                        </div>","200","","0","","","","images/shifted_maps/map07_PuRd_scaleDef_orientDef_180_darkshift.png","angry","1","07","07","PuRd","orientDef","scaleDef","180","darkshift","",""
"","","","","","html-slider-response","102","287105","0.0-98.0","jsvw0zanag","2","97319","NaN","<div style=""width:500px;"">
                            <p style=""font-size:50px; font-weight:bold;""
                            >angry</p>
                            <div style=""width:240px; margin: auto;"">
                                <img src=""images/shifted_maps/map27_berlin_scaleDef_orientDef_000_darkshift.png"" style= ""width:200px""alt=""img"">
                            </div>
                        </div>","74","","0","","","","images/shifted_maps/map27_berlin_scaleDef_orientDef_000_darkshift.png","angry","1","27","27","berlin","orientDef","scaleDef","000","darkshift","",""
"","","","","","html-slider-response","103","288505","0.0-99.0","jsvw0zanag","2","97319","NaN","<div style=""width:500px;"">
                            <p style=""font-size:50px; font-weight:bold;""
                            >angry</p>
                            <div style=""width:240px; margin: auto;"">
                                <img src=""images/shifted_maps/map10_coolwarm_scaleDef_orientDef_000_darkshift.png"" style= ""width:200px""alt=""img"">
                            </div>
                        </div>","200","","0","","","","images/shifted_maps/map10_coolwarm_scaleDef_orientDef_000_darkshift.png","angry","1","10","10","coolwarm","orientDef","scaleDef","000","darkshift","",""
"","","","","","html-slider-response","104","290038","0.0-100.0","jsvw0zanag","2","97319","NaN","<div style=""width:500px;"">
                            <p style=""font-size:50px; font-weight:bold;""
                            >angry</p>
                            <div style=""width:240px; margin: auto;"">
                                <img src=""images/shifted_maps/map15_cividis_scaleDef_orientDef_000_darkshift.png"" style= ""width:200px""alt=""img"">
                            </div>
                        </div>","-200","","0","","","","images/shifted_maps/map15_cividis_scaleDef_orientDef_000_darkshift.png","angry","1","15","15","cividis","orientDef","scaleDef","000","darkshift","",""
"","","","","","html-slider-response","105","291922","0.0-101.0","jsvw0zanag","2","97319","NaN","<div style=""width:500px;"">
                            <p style=""font-size:50px; font-weight:bold;""
                            >angry</p>
                            <div style=""width:240px; margin: auto;"">
                                <img src=""images/shifted_maps/map27_managua_scaleDef_orientDef_180_darkshift.png"" style= ""width:200px""alt=""img"">
                            </div>
                        </div>","-25","","0","","","","images/shifted_maps/map27_managua_scaleDef_orientDef_180_darkshift.png","angry","1","27","27","managua","orientDef","scaleDef","180","darkshift","",""
"","","","","","html-slider-response","106","293655","0.0-102.0","jsvw0zanag","2","97319","NaN","<div style=""width:500px;"">
                            <p style=""font-size:50px; font-weight:bold;""
                            >angry</p>
                            <div style=""width:240px; margin: auto;"">
                                <img src=""images/shifted_maps/map23_PRGn_scaleRev_orientDef_090_darkshift.png"" style= ""width:200px""alt=""img"">
                            </div>
                        </div>","-86","","0","","","","images/shifted_maps/map23_PRGn_scaleRev_orientDef_090_darkshift.png","angry","1","23","23","PRGn","orientDef","scaleRev","090","darkshift","",""
"","","","","","html-slider-response","107","295043","0.0-103.0","jsvw0zanag","2","97319","NaN","<div style=""width:500px;"">
                            <p style=""font-size:50px; font-weight:bold;""
                            >angry</p>
                            <div style=""width:240px; margin: auto;"">
                                <img src=""images/shifted_maps/map13_BrBG_scaleDef_orientDef_000_lightshift.png"" style= ""width:200px""alt=""img"">
                            </div>
                        </div>","-113","","0","","","","images/shifted_maps/map13_BrBG_scaleDef_orientDef_000_lightshift.png","angry","1","13","13","BrBG","orientDef","scaleDef","000","lightshift","",""
"","","","","","html-slider-response","108","296255","0.0-104.0","jsvw0zanag","2","97319","NaN","<div style=""width:500px;"">
                            <p style=""font-size:50px; font-weight:bold;""
                            >angry</p>
                            <div style=""width:240px; margin: auto;"">
                                <img src=""images/shifted_maps/map13_BrBG_scaleDef_orientDef_000_darkshift.png"" style= ""width:200px""alt=""img"">
                            </div>
                        </div>","-74","","0","","","","images/shifted_maps/map13_BrBG_scaleDef_orientDef_000_darkshift.png","angry","1","13","13","BrBG","orientDef","scaleDef","000","darkshift","",""
"","","","","","html-slider-response","109","297638","0.0-105.0","jsvw0zanag","2","97319","NaN","<div style=""width:500px;"">
                            <p style=""font-size:50px; font-weight:bold;""
                            >angry</p>
                            <div style=""width:240px; margin: auto;"">
                                <img src=""images/shifted_maps/map23_RdYlGn_scaleDef_orientDef_180_lightshift.png"" style= ""width:200px""alt=""img"">
                            </div>
                        </div>","186","","0","","","","images/shifted_maps/map23_RdYlGn_scaleDef_orientDef_180_lightshift.png","angry","1","23","23","RdYlGn","orientDef","scaleDef","180","lightshift","",""
"","","","","","html-slider-response","110","298972","0.0-106.0","jsvw0zanag","2","97319","NaN","<div style=""width:500px;"">
                            <p style=""font-size:50px; font-weight:bold;""
                            >angry</p>
                            <div style=""width:240px; margin: auto;"">
                                <img src=""images/shifted_maps/map26_PuOr_scaleRev_orientDef_090_lightshift.png"" style= ""width:200px""alt=""img"">
                            </div>
                        </div>","-60","","0","","","","images/shifted_maps/map26_PuOr_scaleRev_orientDef_090_lightshift.png","angry","1","26","26","PuOr","orientDef","scaleRev","090","lightshift","",""
"","","","","","html-slider-response","111","301905","0.0-107.0","jsvw0zanag","2","97319","NaN","<div style=""width:500px;"">
                            <p style=""font-size:50px; font-weight:bold;""
                            >angry</p>
                            <div style=""width:240px; margin: auto;"">
                                <img src=""images/shifted_maps/map15_YlOrBr_scaleDef_orientDef_180_darkshift.png"" style= ""width:200px""alt=""img"">
                            </div>
                        </div>","-89","","0","","","","images/shifted_maps/map15_YlOrBr_scaleDef_orientDef_180_darkshift.png","angry","1","15","15","YlOrBr","orientDef","scaleDef","180","darkshift","",""
"","","","","","html-slider-response","112","303537","0.0-108.0","jsvw0zanag","2","97319","NaN","<div style=""width:500px;"">
                            <p style=""font-size:50px; font-weight:bold;""
                            >angry</p>
                            <div style=""width:240px; margin: auto;"">
                                <img src=""images/shifted_maps/map10_vanimo_scaleRev_orientDef_270_lightshift.png"" style= ""width:200px""alt=""img"">
                            </div>
                        </div>","-133","","0","","","","images/shifted_maps/map10_vanimo_scaleRev_orientDef_270_lightshift.png","angry","1","10","10","vanimo","orientDef","scaleRev","270","lightshift","",""
"","","","","","html-slider-response","113","305005","0.0-109.0","jsvw0zanag","2","97319","NaN","<div style=""width:500px;"">
                            <p style=""font-size:50px; font-weight:bold;""
                            >angry</p>
                            <div style=""width:240px; margin: auto;"">
                                <img src=""images/shifted_maps/map02_Reds_scaleDef_orientDef_180_lightshift.png"" style= ""width:200px""alt=""img"">
                            </div>
                        </div>","200","","0","","","","images/shifted_maps/map02_Reds_scaleDef_orientDef_180_lightshift.png","angry","1","02","02","Reds","orientDef","scaleDef","180","lightshift","",""
"","","","","","html-slider-response","114","306589","0.0-110.0","jsvw0zanag","2","97319","NaN","<div style=""width:500px;"">
                            <p style=""font-size:50px; font-weight:bold;""
                            >angry</p>
                            <div style=""width:240px; margin: auto;"">
                                <img src=""images/shifted_maps/map23_PRGn_scaleDef_orientDef_000_lightshift.png"" style= ""width:200px""alt=""img"">
                            </div>
                        </div>","-59","","0","","","","images/shifted_maps/map23_PRGn_scaleDef_orientDef_000_lightshift.png","angry","1","23","23","PRGn","orientDef","scaleDef","000","lightshift","",""
"","","","","","html-slider-response","115","308708","0.0-111.0","jsvw0zanag","2","97319","NaN","<div style=""width:500px;"">
                            <p style=""font-size:50px; font-weight:bold;""
                            >angry</p>
                            <div style=""width:240px; margin: auto;"">
                                <img src=""images/shifted_maps/map07_PuRd_scaleDef_orientDef_180_lightshift.png"" style= ""width:200px""alt=""img"">
                            </div>
                        </div>","-88","","0","","","","images/shifted_maps/map07_PuRd_scaleDef_orientDef_180_lightshift.png","angry","1","07","07","PuRd","orientDef","scaleDef","180","lightshift","",""
"","","","","","html-slider-response","116","310205","0.0-112.0","jsvw0zanag","2","97319","NaN","<div style=""width:500px;"">
                            <p style=""font-size:50px; font-weight:bold;""
                            >angry</p>
                            <div style=""width:240px; margin: auto;"">
                                <img src=""images/shifted_maps/map27_managua_scaleDef_orientDef_180_lightshift.png"" style= ""width:200px""alt=""img"">
                            </div>
                        </div>","-71","","0","","","","images/shifted_maps/map27_managua_scaleDef_orientDef_180_lightshift.png","angry","1","27","27","managua","orientDef","scaleDef","180","lightshift","",""
"","","","","","html-slider-response","117","311922","0.0-113.0","jsvw0zanag","2","97319","NaN","<div style=""width:500px;"">
                            <p style=""font-size:50px; font-weight:bold;""
                            >angry</p>
                            <div style=""width:240px; margin: auto;"">
                                <img src=""images/shifted_maps/map07_Greys_scaleDef_orientDef_000_lightshift.png"" style= ""width:200px""alt=""img"">
                            </div>
                        </div>","200","","0","","","","images/shifted_maps/map07_Greys_scaleDef_orientDef_000_lightshift.png","angry","1","07","07","Greys","orientDef","scaleDef","000","lightshift","",""
"","","","","","html-slider-response","118","313405","0.0-114.0","jsvw0zanag","2","97319","NaN","<div style=""width:500px;"">
                            <p style=""font-size:50px; font-weight:bold;""
                            >angry</p>
                            <div style=""width:240px; margin: auto;"">
                                <img src=""images/shifted_maps/map27_managua_scaleRev_orientDef_270_lightshift.png"" style= ""width:200px""alt=""img"">
                            </div>
                        </div>","-54","","0","","","","images/shifted_maps/map27_managua_scaleRev_orientDef_270_lightshift.png","angry","1","27","27","managua","orientDef","scaleRev","270","lightshift","",""
"","","","","","html-slider-response","119","315322","0.0-115.0","jsvw0zanag","2","97319","NaN","<div style=""width:500px;"">
                            <p style=""font-size:50px; font-weight:bold;""
                            >angry</p>
                            <div style=""width:240px; margin: auto;"">
                                <img src=""images/shifted_maps/map15_YlOrBr_scaleRev_orientDef_270_lightshift.png"" style= ""width:200px""alt=""img"">
                            </div>
                        </div>","-170","","0","","","","images/shifted_maps/map15_YlOrBr_scaleRev_orientDef_270_lightshift.png","angry","1","15","15","YlOrBr","orientDef","scaleRev","270","lightshift","",""
"","","","","","html-slider-response","120","317140","0.0-116.0","jsvw0zanag","2","97319","NaN","<div style=""width:500px;"">
                            <p style=""font-size:50px; font-weight:bold;""
                            >angry</p>
                            <div style=""width:240px; margin: auto;"">
                                <img src=""images/shifted_maps/map10_coolwarm_scaleRev_orientDef_090_darkshift.png"" style= ""width:200px""alt=""img"">
                            </div>
                        </div>","-105","","0","","","","images/shifted_maps/map10_coolwarm_scaleRev_orientDef_090_darkshift.png","angry","1","10","10","coolwarm","orientDef","scaleRev","090","darkshift","",""
"","","","","","html-slider-response","121","318571","0.0-117.0","jsvw0zanag","2","97319","NaN","<div style=""width:500px;"">
                            <p style=""font-size:50px; font-weight:bold;""
                            >angry</p>
                            <div style=""width:240px; margin: auto;"">
                                <img src=""images/shifted_maps/map07_Greys_scaleRev_orientDef_090_darkshift.png"" style= ""width:200px""alt=""img"">
                            </div>
                        </div>","141","","0","","","","images/shifted_maps/map07_Greys_scaleRev_orientDef_090_darkshift.png","angry","1","07","07","Greys","orientDef","scaleRev","090","darkshift","",""
"","","","","","html-slider-response","122","320153","0.0-118.0","jsvw0zanag","2","97319","NaN","<div style=""width:500px;"">
                            <p style=""font-size:50px; font-weight:bold;""
                            >angry</p>
                            <div style=""width:240px; margin: auto;"">
                                <img src=""images/shifted_maps/map02_Reds_scaleRev_orientDef_270_darkshift.png"" style= ""width:200px""alt=""img"">
                            </div>
                        </div>","158","","0","","","","images/shifted_maps/map02_Reds_scaleRev_orientDef_270_darkshift.png","angry","1","02","02","Reds","orientDef","scaleRev","270","darkshift","",""
"","","","","","html-slider-response","123","321803","0.0-119.0","jsvw0zanag","2","97319","NaN","<div style=""width:500px;"">
                            <p style=""font-size:50px; font-weight:bold;""
                            >angry</p>
                            <div style=""width:240px; margin: auto;"">
                                <img src=""images/shifted_maps/map10_coolwarm_scaleRev_orientDef_090_lightshift.png"" style= ""width:200px""alt=""img"">
                            </div>
                        </div>","95","","0","","","","images/shifted_maps/map10_coolwarm_scaleRev_orientDef_090_lightshift.png","angry","1","10","10","coolwarm","orientDef","scaleRev","090","lightshift","",""
"","","","","","html-slider-response","124","323189","0.0-120.0","jsvw0zanag","2","97319","NaN","<div style=""width:500px;"">
                            <p style=""font-size:50px; font-weight:bold;""
                            >angry</p>
                            <div style=""width:240px; margin: auto;"">
                                <img src=""images/shifted_maps/map15_cividis_scaleRev_orientDef_090_darkshift.png"" style= ""width:200px""alt=""img"">
                            </div>
                        </div>","-58","","0","","","","images/shifted_maps/map15_cividis_scaleRev_orientDef_090_darkshift.png","angry","1","15","15","cividis","orientDef","scaleRev","090","darkshift","",""
"","","","","","html-slider-response","125","325838","0.0-121.0","jsvw0zanag","2","97319","NaN","<div style=""width:500px;"">
                            <p style=""font-size:50px; font-weight:bold;""
                            >angry</p>
                            <div style=""width:240px; margin: auto;"">
                                <img src=""images/shifted_maps/map13_magma_scaleDef_orientDef_180_lightshift.png"" style= ""width:200px""alt=""img"">
                            </div>
                        </div>","102","","0","","","","images/shifted_maps/map13_magma_scaleDef_orientDef_180_lightshift.png","angry","1","13","13","magma","orientDef","scaleDef","180","lightshift","",""
"","","","","","html-slider-response","126","327224","0.0-122.0","jsvw0zanag","2","97319","NaN","<div style=""width:500px;"">
                            <p style=""font-size:50px; font-weight:bold;""
                            >angry</p>
                            <div style=""width:240px; margin: auto;"">
                                <img src=""images/shifted_maps/map26_PuOr_scaleDef_orientDef_000_darkshift.png"" style= ""width:200px""alt=""img"">
                            </div>
                        </div>","-81","","0","","","","images/shifted_maps/map26_PuOr_scaleDef_orientDef_000_darkshift.png","angry","1","26","26","PuOr","orientDef","scaleDef","000","darkshift","",""
"","","","","","html-slider-response","127","328371","0.0-123.0","jsvw0zanag","2","97319","NaN","<div style=""width:500px;"">
                            <p style=""font-size:50px; font-weight:bold;""
                            >angry</p>
                            <div style=""width:240px; margin: auto;"">
                                <img src=""images/shifted_maps/map10_vanimo_scaleDef_orientDef_180_lightshift.png"" style= ""width:200px""alt=""img"">
                            </div>
                        </div>","-42","","0","","","","images/shifted_maps/map10_vanimo_scaleDef_orientDef_180_lightshift.png","angry","1","10","10","vanimo","orientDef","scaleDef","180","lightshift","",""
"","","","","","html-slider-response","128","329655","0.0-124.0","jsvw0zanag","2","97319","NaN","<div style=""width:500px;"">
                            <p style=""font-size:50px; font-weight:bold;""
                            >angry</p>
                            <div style=""width:240px; margin: auto;"">
                                <img src=""images/shifted_maps/map12_BuPu_scaleDef_orientDef_180_darkshift.png"" style= ""width:200px""alt=""img"">
                            </div>
                        </div>","-59","","0","","","","images/shifted_maps/map12_BuPu_scaleDef_orientDef_180_darkshift.png","angry","1","12","12","BuPu","orientDef","scaleDef","180","darkshift","",""
"","","","","","html-slider-response","129","331105","0.0-125.0","jsvw0zanag","2","97319","NaN","<div style=""width:500px;"">
                            <p style=""font-size:50px; font-weight:bold;""
                            >angry</p>
                            <div style=""width:240px; margin: auto;"">
                                <img src=""images/shifted_maps/map23_PRGn_scaleDef_orientDef_000_darkshift.png"" style= ""width:200px""alt=""img"">
                            </div>
                        </div>","-64","","0","","","","images/shifted_maps/map23_PRGn_scaleDef_orientDef_000_darkshift.png","angry","1","23","23","PRGn","orientDef","scaleDef","000","darkshift","",""
"","","","","","html-slider-response","130","332821","0.0-126.0","jsvw0zanag","2","97319","NaN","<div style=""width:500px;"">
                            <p style=""font-size:50px; font-weight:bold;""
                            >angry</p>
                            <div style=""width:240px; margin: auto;"">
                                <img src=""images/shifted_maps/map07_Greys_scaleDef_orientDef_000_darkshift.png"" style= ""width:200px""alt=""img"">
                            </div>
                        </div>","200","","0","","","","images/shifted_maps/map07_Greys_scaleDef_orientDef_000_darkshift.png","angry","1","07","07","Greys","orientDef","scaleDef","000","darkshift","",""
"","","","","","html-slider-response","131","334173","0.0-127.0","jsvw0zanag","2","97319","NaN","<div style=""width:500px;"">
                            <p style=""font-size:50px; font-weight:bold;""
                            >angry</p>
                            <div style=""width:240px; margin: auto;"">
                                <img src=""images/shifted_maps/map12_BuPu_scaleRev_orientDef_270_darkshift.png"" style= ""width:200px""alt=""img"">
                            </div>
                        </div>","-45","","0","","","","images/shifted_maps/map12_BuPu_scaleRev_orientDef_270_darkshift.png","angry","1","12","12","BuPu","orientDef","scaleRev","270","darkshift","",""
"","","","","","html-slider-response","132","335591","0.0-128.0","jsvw0zanag","2","97319","NaN","<div style=""width:500px;"">
                            <p style=""font-size:50px; font-weight:bold;""
                            >angry</p>
                            <div style=""width:240px; margin: auto;"">
                                <img src=""images/shifted_maps/map26_PuOr_scaleDef_orientDef_000_lightshift.png"" style= ""width:200px""alt=""img"">
                            </div>
                        </div>","-76","","0","","","","images/shifted_maps/map26_PuOr_scaleDef_orientDef_000_lightshift.png","angry","1","26","26","PuOr","orientDef","scaleDef","000","lightshift","",""
"","","","","","html-slider-response","133","336823","0.0-129.0","jsvw0zanag","2","97319","NaN","<div style=""width:500px;"">
                            <p style=""font-size:50px; font-weight:bold;""
                            >angry</p>
                            <div style=""width:240px; margin: auto;"">
                                <img src=""images/shifted_maps/map13_BrBG_scaleRev_orientDef_090_darkshift.png"" style= ""width:200px""alt=""img"">
                            </div>
                        </div>","-76","","0","","","","images/shifted_maps/map13_BrBG_scaleRev_orientDef_090_darkshift.png","angry","1","13","13","BrBG","orientDef","scaleRev","090","darkshift","",""
"","","","","","html-slider-response","134","338304","0.0-130.0","jsvw0zanag","2","97319","NaN","<div style=""width:500px;"">
                            <p style=""font-size:50px; font-weight:bold;""
                            >angry</p>
                            <div style=""width:240px; margin: auto;"">
                                <img src=""images/shifted_maps/map12_BuPu_scaleRev_orientDef_270_lightshift.png"" style= ""width:200px""alt=""img"">
                            </div>
                        </div>","-137","","0","","","","images/shifted_maps/map12_BuPu_scaleRev_orientDef_270_lightshift.png","angry","1","12","12","BuPu","orientDef","scaleRev","270","lightshift","",""
"","","","","","html-slider-response","135","339626","0.0-131.0","jsvw0zanag","2","97319","NaN","<div style=""width:500px;"">
                            <p style=""font-size:50px; font-weight:bold;""
                            >angry</p>
                            <div style=""width:240px; margin: auto;"">
                                <img src=""images/shifted_maps/map02_turbo_scaleRev_orientDef_090_darkshift.png"" style= ""width:200px""alt=""img"">
                            </div>
                        </div>","-40","","0","","","","images/shifted_maps/map02_turbo_scaleRev_orientDef_090_darkshift.png","angry","1","02","02","turbo","orientDef","scaleRev","090","darkshift","",""
"","","","","","html-slider-response","136","341104","0.0-132.0","jsvw0zanag","2","97319","NaN","<div style=""width:500px;"">
                            <p style=""font-size:50px; font-weight:bold;""
                            >angry</p>
                            <div style=""width:240px; margin: auto;"">
                                <img src=""images/shifted_maps/map12_RdGy_scaleDef_orientDef_000_darkshift.png"" style= ""width:200px""alt=""img"">
                            </div>
                        </div>","200","","0","","","","images/shifted_maps/map12_RdGy_scaleDef_orientDef_000_darkshift.png","angry","1","12","12","RdGy","orientDef","scaleDef","000","darkshift","",""
"","","","","","html-slider-response","137","342737","0.0-133.0","jsvw0zanag","2","97319","NaN","<div style=""width:500px;"">
                            <p style=""font-size:50px; font-weight:bold;""
                            >angry</p>
                            <div style=""width:240px; margin: auto;"">
                                <img src=""images/shifted_maps/map10_vanimo_scaleRev_orientDef_270_darkshift.png"" style= ""width:200px""alt=""img"">
                            </div>
                        </div>","-54","","0","","","","images/shifted_maps/map10_vanimo_scaleRev_orientDef_270_darkshift.png","angry","1","10","10","vanimo","orientDef","scaleRev","270","darkshift","",""
"","","","","","html-slider-response","138","345972","0.0-134.0","jsvw0zanag","2","97319","NaN","<div style=""width:500px;"">
                            <p style=""font-size:50px; font-weight:bold;""
                            >angry</p>
                            <div style=""width:240px; margin: auto;"">
                                <img src=""images/shifted_maps/map23_RdYlGn_scaleDef_orientDef_180_darkshift.png"" style= ""width:200px""alt=""img"">
                            </div>
                        </div>","-89","","0","","","","images/shifted_maps/map23_RdYlGn_scaleDef_orientDef_180_darkshift.png","angry","1","23","23","RdYlGn","orientDef","scaleDef","180","darkshift","",""
"","","","","","html-slider-response","139","347243","0.0-135.0","jsvw0zanag","2","97319","NaN","<div style=""width:500px;"">
                            <p style=""font-size:50px; font-weight:bold;""
                            >angry</p>
                            <div style=""width:240px; margin: auto;"">
                                <img src=""images/shifted_maps/map15_YlOrBr_scaleRev_orientDef_270_darkshift.png"" style= ""width:200px""alt=""img"">
                            </div>
                        </div>","-113","","0","","","","images/shifted_maps/map15_YlOrBr_scaleRev_orientDef_270_darkshift.png","angry","1","15","15","YlOrBr","orientDef","scaleRev","270","darkshift","",""
"","","","","","html-slider-response","140","348770","0.0-136.0","jsvw0zanag","2","97319","NaN","<div style=""width:500px;"">
                            <p style=""font-size:50px; font-weight:bold;""
                            >angry</p>
                            <div style=""width:240px; margin: auto;"">
                                <img src=""images/shifted_maps/map07_PuRd_scaleRev_orientDef_270_darkshift.png"" style= ""width:200px""alt=""img"">
                            </div>
                        </div>","79","","0","","","","images/shifted_maps/map07_PuRd_scaleRev_orientDef_270_darkshift.png","angry","1","07","07","PuRd","orientDef","scaleRev","270","darkshift","",""
"","","","","","html-button-response","141","350260","0.0-137.0","jsvw0zanag","2","97319","987","<p>You are doing great!<br></br> You are halway done with the current block. When you are ready to continue, click the 'Continue' button.</p>","0","","","","","","","","","","","","","","","","",""
"","","","","","html-slider-response","142","352238","0.0-138.0","jsvw0zanag","2","97319","NaN","<div style=""width:500px;"">
                            <p style=""font-size:50px; font-weight:bold;""
                            >angry</p>
                            <div style=""width:240px; margin: auto;"">
                                <img src=""images/shifted_maps/map10_vanimo_scaleDef_orientDef_180_darkshift.png"" style= ""width:200px""alt=""img"">
                            </div>
                        </div>","-192","","0","","","","images/shifted_maps/map10_vanimo_scaleDef_orientDef_180_darkshift.png","angry","1","10","10","vanimo","orientDef","scaleDef","180","darkshift","",""
"","","","","","html-slider-response","143","353605","0.0-139.0","jsvw0zanag","2","97319","NaN","<div style=""width:500px;"">
                            <p style=""font-size:50px; font-weight:bold;""
                            >angry</p>
                            <div style=""width:240px; margin: auto;"">
                                <img src=""images/shifted_maps/map10_coolwarm_scaleDef_orientDef_000_lightshift.png"" style= ""width:200px""alt=""img"">
                            </div>
