"success","timeout","failed_images","failed_audio","failed_video","trial_type","trial_index","time_elapsed","internal_node_id","subject_id","condition_num","SONA_id","rt","stimulus","response","question_order","slider_start","practiceTrial","practiceTrialNum","correct","image_path","concept","repetition","map_id","map_num","scale_name","orientation_code","mapping_code","rotation_code","shift_code","ishihara_plate","correct_response"
"true","false","[]","[]","[]","preload","0","1040","0.0-0.0","octpmrlkux","3","96606","","","","","","","","","","","","","","","","","","","",""
"","","","","","html-button-response","1","8091","0.0-1.0","octpmrlkux","3","96606","7050","Welcome to our experiment!<p>At the bottom of this screen, you will see a button that says ""Begin Experiment"".<br>Please only click that button when you are ready to complete the 30 minute experiment in one sitting.</p><p> Once you click that button, it will not be possible to restart the experiment.","0","","","","","","","","","","","","","","","","",""
"true","","","","","fullscreen","2","11526","0.0-2.0","octpmrlkux","3","96606","2420","","","","","","","","","","","","","","","","","","",""
"","","","","","survey-multi-select","3","63810","0.0-3.0","octpmrlkux","3","96606","52282","","{""Consent"":[""<strong>I consent</strong>""]}","[0]","","","","","","","","","","","","","","","",""
"","","","","","html-button-response","4","66194","0.0-4.0","octpmrlkux","3","96606","2383","Welcome! <p> This experiment involves two parts: demographic information, followed by the experimental task.<p> It will take about 30 minutes to complete both parts.","0","","","","","","","","","","","","","","","","",""
"","","","","","survey-text","5","82124","0.0-5.0","octpmrlkux","3","96606","15926","","{""Age"":""18"",""Gender"":""Female"",""Race/ethnicity"":""White"",""Languages"":""English""}","","","","","","","","","","","","","","","","",""
"","","","","","html-slider-response","6","127083","0.0-6.0","octpmrlkux","3","96606","44956","<div style='text-align:left; font-size:20px; line-height:25px; width: 1000px;'>
                                During this experiment you will be asked to rate how much you associate maps with                    different concepts.<br> Below, you can see some examples of the maps you will be asked to rate. Above the maps
                    is the list of concepts.<br>You will be asked                    to rate how much you associate each map with each concept on a scale from 'not at all' to 'very much' like the
                    one below. <br><br>
                    Now, please look at the list of concepts and maps. For each concept, think about the map you associate 'very
                    much' with the concept.<br>                     When you see that map during the experiment, please rate it near the 'very much' endpoint of the
                    scale.<br>Now, please think about which map you associate 'not at all'                     with each concept. When you see that map during the experiment, please rate it near the 'not at all' endpoint
                    of the scale.<br>
                    Please use the full range of the scale. That is, if a map is somewhat associated with the concept, you would
                    click partway between the middle point and right side of the scale.                    You will be asked to rate each map for a given concept before moving on to the next concept.<br>Press the
                    'Continue' button for instructions on how to use the slider.                    <br>
                </div>

                <div style=""width: 500px; margin: 0 auto;"">
                    <!-- Centered text paragraphs -->
                    <div style=""text-align: center; width: 500px;"">
                        <p style=""font-size:25px; line-height:15px;"">
                            happy&nbsp;&nbsp;&nbsp;&nbsp;
                            disgust&nbsp;&nbsp;&nbsp;&nbsp;
                            sad&nbsp;&nbsp;&nbsp;&nbsp;
                            fearful&nbsp;&nbsp;&nbsp;&nbsp;
                            angry
                        </p>
                        <!-- <p style=""font-size:20px; line-height:15px;"">disgust</p>
                        <p style=""font-size:20px;line-height:15px;"">sad</p>
                        <p style=""font-size:20px;line-height:15px;"">fearful</p>
                        <p style=""font-size:20px;line-height:15px;"">angry</p> -->
                    </div>
            

                    <!-- Grid section -->
                   <div style=""display: flex; justify-content: center; padding-top: 15px;"">
                    <div style=""display: grid; grid-template-columns: repeat(10, 55px); grid-gap: 5px; width: auto;"">
                        <img src=""images/shifted_maps/map26_RdYlGn_scaleRev_orientDef_000_lightshift.png"" alt=""map"" style=""width: 100%;""><img src=""images/shifted_maps/map10_coolwarm_scaleRev_orientDef_180_darkshift.png"" alt=""map"" style=""width: 100%;""><img src=""images/shifted_maps/map27_BuGn_scaleRev_orientDef_000_darkshift.png"" alt=""map"" style=""width: 100%;""><img src=""images/shifted_maps/map23_PRGn_scaleDef_orientDef_090_lightshift.png"" alt=""map"" style=""width: 100%;""><img src=""images/shifted_maps/map15_cividis_scaleDef_orientDef_090_lightshift.png"" alt=""map"" style=""width: 100%;""><img src=""images/shifted_maps/map02_managua_scaleRev_orientDef_000_darkshift.png"" alt=""map"" style=""width: 100%;""><img src=""images/shifted_maps/map02_turbo_scaleRev_orientDef_180_darkshift.png"" alt=""map"" style=""width: 100%;""><img src=""images/shifted_maps/map26_PuOr_scaleDef_orientDef_090_darkshift.png"" alt=""map"" style=""width: 100%;""><img src=""images/shifted_maps/map12_vanimo_scaleRev_orientDef_000_darkshift.png"" alt=""map"" style=""width: 100%;""><img src=""images/shifted_maps/map26_RdYlGn_scaleRev_orientDef_000_darkshift.png"" alt=""map"" style=""width: 100%;""><img src=""images/shifted_maps/map13_BrBG_scaleRev_orientDef_180_lightshift.png"" alt=""map"" style=""width: 100%;""><img src=""images/shifted_maps/map13_BuPu_scaleRev_orientDef_000_darkshift.png"" alt=""map"" style=""width: 100%;""><img src=""images/shifted_maps/map15_magma_scaleRev_orientDef_000_darkshift.png"" alt=""map"" style=""width: 100%;""><img src=""images/shifted_maps/map13_BrBG_scaleRev_orientDef_180_darkshift.png"" alt=""map"" style=""width: 100%;""><img src=""images/shifted_maps/map23_YlOrBr_scaleRev_orientDef_000_darkshift.png"" alt=""map"" style=""width: 100%;""><img src=""images/shifted_maps/map13_BuPu_scaleRev_orientDef_000_lightshift.png"" alt=""map"" style=""width: 100%;""><img src=""images/shifted_maps/map05_PuBu_scaleRev_orientDef_180_darkshift.png"" alt=""map"" style=""width: 100%;""><img src=""images/shifted_maps/map27_BuGn_scaleRev_orientDef_000_lightshift.png"" alt=""map"" style=""width: 100%;""><img src=""images/shifted_maps/map05_PuBu_scaleDef_orientDef_090_lightshift.png"" alt=""map"" style=""width: 100%;""><img src=""images/shifted_maps/map05_PiYG_scaleDef_orientDef_270_darkshift.png"" alt=""map"" style=""width: 100%;""><img src=""images/shifted_maps/map12_RdGy_scaleDef_orientDef_090_darkshift.png"" alt=""map"" style=""width: 100%;""><img src=""images/shifted_maps/map02_turbo_scaleRev_orientDef_180_lightshift.png"" alt=""map"" style=""width: 100%;""><img src=""images/shifted_maps/map07_Greys_scaleRev_orientDef_180_lightshift.png"" alt=""map"" style=""width: 100%;""><img src=""images/shifted_maps/map10_vanimo_scaleDef_orientDef_270_lightshift.png"" alt=""map"" style=""width: 100%;""><img src=""images/shifted_maps/map15_magma_scaleRev_orientDef_000_lightshift.png"" alt=""map"" style=""width: 100%;""><img src=""images/shifted_maps/map02_managua_scaleRev_orientDef_000_lightshift.png"" alt=""map"" style=""width: 100%;""><img src=""images/shifted_maps/map27_berlin_scaleRev_orientDef_180_darkshift.png"" alt=""map"" style=""width: 100%;""><img src=""images/shifted_maps/map26_PuOr_scaleDef_orientDef_090_lightshift.png"" alt=""map"" style=""width: 100%;""><img src=""images/shifted_maps/map12_RdGy_scaleDef_orientDef_090_lightshift.png"" alt=""map"" style=""width: 100%;""><img src=""images/shifted_maps/map10_coolwarm_scaleRev_orientDef_180_lightshift.png"" alt=""map"" style=""width: 100%;""><img src=""images/shifted_maps/map07_PuRd_scaleDef_orientDef_270_darkshift.png"" alt=""map"" style=""width: 100%;""><img src=""images/shifted_maps/map07_PuRd_scaleDef_orientDef_270_lightshift.png"" alt=""map"" style=""width: 100%;""><img src=""images/shifted_maps/map23_PRGn_scaleRev_orientDef_180_darkshift.png"" alt=""map"" style=""width: 100%;""><img src=""images/shifted_maps/map02_Reds_scaleDef_orientDef_270_lightshift.png"" alt=""map"" style=""width: 100%;""><img src=""images/shifted_maps/map02_Reds_scaleDef_orientDef_270_darkshift.png"" alt=""map"" style=""width: 100%;""><img src=""images/shifted_maps/map07_Greys_scaleRev_orientDef_180_darkshift.png"" alt=""map"" style=""width: 100%;""><img src=""images/shifted_maps/map15_YlOrBr_scaleDef_orientDef_270_lightshift.png"" alt=""map"" style=""width: 100%;""><img src=""images/shifted_maps/map27_berlin_scaleDef_orientDef_090_lightshift.png"" alt=""map"" style=""width: 100%;""><img src=""images/shifted_maps/map15_cividis_scaleDef_orientDef_090_darkshift.png"" alt=""map"" style=""width: 100%;""><img src=""images/shifted_maps/map07_PiYG_scaleRev_orientDef_000_lightshift.png"" alt=""map"" style=""width: 100%;"">
                    </div>
                </div>

                    <!-- Clear floats -->
                    <div style=""clear: both;""></div>
                </div>
                            ","null","","0","true","","","","","","","","","","","","","",""
"","","","","","html-button-response","7","132334","0.0-7.0","octpmrlkux","3","96606","5251","<div style=""width:800px;""><p style=""text-align:left"">To move the slider, click and drag your cursor to the location of the scale where you would like to make your rating and then let go. When you let go of the slider, your response will be recorded and the next trial will begin. <br>
                    We are interested in your initial impressions of each map for the given concept, so please go with your first intuition. <br>
                    Before you begin the experiment, there will be four training trials for you to practice using the scale. <br>
                     When you are ready to start the training trials, please click ""Continue"".</p><br></div>","0","","","","","","","","","","","","","","","","",""
"","","","","","html-slider-response","8","136434","0.0-8.0-0.0","octpmrlkux","3","96606","NaN","<div style=""width:500px;"">
                                    <p style=""font-size:25px;"">Please move the slider all the way to the <br> right endpoint of the scale</p>

                                    </div>
                                </div>","200","","0","true","0","true","","","","","","","","","","","",""
"","","","","","html-button-response","9","138652","0.0-8.0-1.0","octpmrlkux","3","96606","1707","<p align='center'><b>Good job!</b> Click on 'Continue' to proceed.</p>","0","","","","","","","","","","","","","","","","",""
"","","","","","html-slider-response","10","140961","0.0-9.0-0.0","octpmrlkux","3","96606","NaN","<div style=""width:500px;"">
                                    <p style=""font-size:25px;"">Please move the slider all the way to the <br> left endpoint of the scale</p>

                                    </div>
                                </div>","-200","","0","true","1","true","","","","","","","","","","","",""
"","","","","","html-button-response","11","142499","0.0-9.0-1.0","octpmrlkux","3","96606","1021","<p align='center'><b>Good job!</b> Click on 'Continue' to proceed.</p>","0","","","","","","","","","","","","","","","","",""
"","","","","","html-slider-response","12","149740","0.0-10.0-0.0","octpmrlkux","3","96606","NaN","<div style=""width:500px;"">
                                    <p style=""font-size:25px;"">Please move the slider halfway between the center and right endpoint of the scale</p>

                                    </div>
                                </div>","98","","0","true","2","true","","","","","","","","","","","",""
"","","","","","html-button-response","13","151230","0.0-10.0-1.0","octpmrlkux","3","96606","987","<p align='center'><b>Good job!</b> Click on 'Continue' to proceed.</p>","0","","","","","","","","","","","","","","","","",""
"","","","","","html-slider-response","14","158306","0.0-11.0-0.0","octpmrlkux","3","96606","NaN","<div style=""width:500px;"">
                                    <p style=""font-size:25px;"">Please move the slider halfway between the center and left endpoint of the scale</p>

                                    </div>
                                </div>","-106","","0","true","3","true","","","","","","","","","","","",""
"","","","","","html-button-response","15","160073","0.0-11.0-1.0","octpmrlkux","3","96606","1266","<p align='center'><b>Good job!</b> Click on 'Continue' to proceed.</p>","0","","","","","","","","","","","","","","","","",""
"","","","","","html-button-response","16","161505","0.0-12.0","octpmrlkux","3","96606","1431","<p>Great job! You've completed the practice trials. Now you will begin the main task.</p>","0","","","","","","","","","","","","","","","","",""
"","","","","","html-button-response","17","164292","0.0-13.0","octpmrlkux","3","96606","2787","<p>In this block of trials, you will be asked to rate how much you associate each map with:</p > <p style = 'font-size:150%; font-weight: bold'>happy</p><br></br>","0","","","","","","","","","","","","","","","","",""
"","","","","","html-slider-response","18","167367","0.0-14.0","octpmrlkux","3","96606","NaN","<div style=""width:500px;"">
                            <p style=""font-size:50px; font-weight:bold;""
                            >happy</p>
                            <div style=""width:240px; margin: auto;"">
                                <img src=""images/shifted_maps/map07_Greys_scaleRev_orientDef_180_darkshift.png"" style= ""width:200px""alt=""img"">
                            </div>
                        </div>","-98","","0","","","","images/shifted_maps/map07_Greys_scaleRev_orientDef_180_darkshift.png","happy","1","07","07","Greys","orientDef","scaleRev","180","darkshift","",""
"","","","","","html-slider-response","19","170523","0.0-15.0","octpmrlkux","3","96606","NaN","<div style=""width:500px;"">
                            <p style=""font-size:50px; font-weight:bold;""
                            >happy</p>
                            <div style=""width:240px; margin: auto;"">
                                <img src=""images/shifted_maps/map26_PuOr_scaleRev_orientDef_180_darkshift.png"" style= ""width:200px""alt=""img"">
                            </div>
                        </div>","54","","0","","","","images/shifted_maps/map26_PuOr_scaleRev_orientDef_180_darkshift.png","happy","1","26","26","PuOr","orientDef","scaleRev","180","darkshift","",""
"","","","","","html-slider-response","20","173841","0.0-16.0","octpmrlkux","3","96606","NaN","<div style=""width:500px;"">
                            <p style=""font-size:50px; font-weight:bold;""
                            >happy</p>
                            <div style=""width:240px; margin: auto;"">
                                <img src=""images/shifted_maps/map07_Greys_scaleDef_orientDef_090_darkshift.png"" style= ""width:200px""alt=""img"">
                            </div>
                        </div>","-190","","0","","","","images/shifted_maps/map07_Greys_scaleDef_orientDef_090_darkshift.png","happy","1","07","07","Greys","orientDef","scaleDef","090","darkshift","",""
"","","","","","html-slider-response","21","176241","0.0-17.0","octpmrlkux","3","96606","NaN","<div style=""width:500px;"">
                            <p style=""font-size:50px; font-weight:bold;""
                            >happy</p>
                            <div style=""width:240px; margin: auto;"">
                                <img src=""images/shifted_maps/map02_Reds_scaleDef_orientDef_270_darkshift.png"" style= ""width:200px""alt=""img"">
                            </div>
                        </div>","-80","","0","","","","images/shifted_maps/map02_Reds_scaleDef_orientDef_270_darkshift.png","happy","1","02","02","Reds","orientDef","scaleDef","270","darkshift","",""
"","","","","","html-slider-response","22","178325","0.0-18.0","octpmrlkux","3","96606","NaN","<div style=""width:500px;"">
                            <p style=""font-size:50px; font-weight:bold;""
                            >happy</p>
                            <div style=""width:240px; margin: auto;"">
                                <img src=""images/shifted_maps/map27_berlin_scaleRev_orientDef_180_lightshift.png"" style= ""width:200px""alt=""img"">
                            </div>
                        </div>","61","","0","","","","images/shifted_maps/map27_berlin_scaleRev_orientDef_180_lightshift.png","happy","1","27","27","berlin","orientDef","scaleRev","180","lightshift","",""
"","","","","","html-slider-response","23","180759","0.0-19.0","octpmrlkux","3","96606","NaN","<div style=""width:500px;"">
                            <p style=""font-size:50px; font-weight:bold;""
                            >happy</p>
                            <div style=""width:240px; margin: auto;"">
                                <img src=""images/shifted_maps/map27_berlin_scaleRev_orientDef_180_darkshift.png"" style= ""width:200px""alt=""img"">
                            </div>
                        </div>","-43","","0","","","","images/shifted_maps/map27_berlin_scaleRev_orientDef_180_darkshift.png","happy","1","27","27","berlin","orientDef","scaleRev","180","darkshift","",""
"","","","","","html-slider-response","24","183242","0.0-20.0","octpmrlkux","3","96606","NaN","<div style=""width:500px;"">
                            <p style=""font-size:50px; font-weight:bold;""
                            >happy</p>
                            <div style=""width:240px; margin: auto;"">
                                <img src=""images/shifted_maps/map13_BrBG_scaleDef_orientDef_090_darkshift.png"" style= ""width:200px""alt=""img"">
                            </div>
                        </div>","133","","0","","","","images/shifted_maps/map13_BrBG_scaleDef_orientDef_090_darkshift.png","happy","1","13","13","BrBG","orientDef","scaleDef","090","darkshift","",""
"","","","","","html-slider-response","25","185401","0.0-21.0","octpmrlkux","3","96606","NaN","<div style=""width:500px;"">
                            <p style=""font-size:50px; font-weight:bold;""
                            >happy</p>
                            <div style=""width:240px; margin: auto;"">
                                <img src=""images/shifted_maps/map26_PuOr_scaleRev_orientDef_180_lightshift.png"" style= ""width:200px""alt=""img"">
                            </div>
                        </div>","45","","0","","","","images/shifted_maps/map26_PuOr_scaleRev_orientDef_180_lightshift.png","happy","1","26","26","PuOr","orientDef","scaleRev","180","lightshift","",""
"","","","","","html-slider-response","26","188535","0.0-22.0","octpmrlkux","3","96606","NaN","<div style=""width:500px;"">
                            <p style=""font-size:50px; font-weight:bold;""
                            >happy</p>
                            <div style=""width:240px; margin: auto;"">
                                <img src=""images/shifted_maps/map15_YlOrBr_scaleDef_orientDef_270_lightshift.png"" style= ""width:200px""alt=""img"">
                            </div>
                        </div>","190","","0","","","","images/shifted_maps/map15_YlOrBr_scaleDef_orientDef_270_lightshift.png","happy","1","15","15","YlOrBr","orientDef","scaleDef","270","lightshift","",""
"","","","","","html-slider-response","27","191301","0.0-23.0","octpmrlkux","3","96606","NaN","<div style=""width:500px;"">
                            <p style=""font-size:50px; font-weight:bold;""
                            >happy</p>
                            <div style=""width:240px; margin: auto;"">
                                <img src=""images/shifted_maps/map05_PuBu_scaleDef_orientDef_090_darkshift.png"" style= ""width:200px""alt=""img"">
                            </div>
                        </div>","-134","","0","","","","images/shifted_maps/map05_PuBu_scaleDef_orientDef_090_darkshift.png","happy","1","05","05","PuBu","orientDef","scaleDef","090","darkshift","",""
"","","","","","html-slider-response","28","193791","0.0-24.0","octpmrlkux","3","96606","NaN","<div style=""width:500px;"">
                            <p style=""font-size:50px; font-weight:bold;""
                            >happy</p>
                            <div style=""width:240px; margin: auto;"">
                                <img src=""images/shifted_maps/map07_PiYG_scaleRev_orientDef_000_lightshift.png"" style= ""width:200px""alt=""img"">
                            </div>
                        </div>","156","","0","","","","images/shifted_maps/map07_PiYG_scaleRev_orientDef_000_lightshift.png","happy","1","07","07","PiYG","orientDef","scaleRev","000","lightshift","",""
"","","","","","html-slider-response","29","196765","0.0-25.0","octpmrlkux","3","96606","NaN","<div style=""width:500px;"">
                            <p style=""font-size:50px; font-weight:bold;""
                            >happy</p>
                            <div style=""width:240px; margin: auto;"">
                                <img src=""images/shifted_maps/map23_PRGn_scaleRev_orientDef_180_darkshift.png"" style= ""width:200px""alt=""img"">
                            </div>
                        </div>","-32","","0","","","","images/shifted_maps/map23_PRGn_scaleRev_orientDef_180_darkshift.png","happy","1","23","23","PRGn","orientDef","scaleRev","180","darkshift","",""
"","","","","","html-slider-response","30","199824","0.0-26.0","octpmrlkux","3","96606","NaN","<div style=""width:500px;"">
                            <p style=""font-size:50px; font-weight:bold;""
                            >happy</p>
                            <div style=""width:240px; margin: auto;"">
                                <img src=""images/shifted_maps/map23_PRGn_scaleDef_orientDef_090_darkshift.png"" style= ""width:200px""alt=""img"">
                            </div>
                        </div>","-23","","0","","","","images/shifted_maps/map23_PRGn_scaleDef_orientDef_090_darkshift.png","happy","1","23","23","PRGn","orientDef","scaleDef","090","darkshift","",""
"","","","","","html-slider-response","31","202502","0.0-27.0","octpmrlkux","3","96606","NaN","<div style=""width:500px;"">
                            <p style=""font-size:50px; font-weight:bold;""
                            >happy</p>
                            <div style=""width:240px; margin: auto;"">
                                <img src=""images/shifted_maps/map15_magma_scaleRev_orientDef_000_lightshift.png"" style= ""width:200px""alt=""img"">
                            </div>
                        </div>","71","","0","","","","images/shifted_maps/map15_magma_scaleRev_orientDef_000_lightshift.png","happy","1","15","15","magma","orientDef","scaleRev","000","lightshift","",""
"","","","","","html-slider-response","32","205213","0.0-28.0","octpmrlkux","3","96606","NaN","<div style=""width:500px;"">
                            <p style=""font-size:50px; font-weight:bold;""
                            >happy</p>
                            <div style=""width:240px; margin: auto;"">
                                <img src=""images/shifted_maps/map27_BuGn_scaleRev_orientDef_000_darkshift.png"" style= ""width:200px""alt=""img"">
                            </div>
                        </div>","36","","0","","","","images/shifted_maps/map27_BuGn_scaleRev_orientDef_000_darkshift.png","happy","1","27","27","BuGn","orientDef","scaleRev","000","darkshift","",""
"","","","","","html-slider-response","33","207668","0.0-29.0","octpmrlkux","3","96606","NaN","<div style=""width:500px;"">
                            <p style=""font-size:50px; font-weight:bold;""
                            >happy</p>
                            <div style=""width:240px; margin: auto;"">
                                <img src=""images/shifted_maps/map15_cividis_scaleDef_orientDef_090_darkshift.png"" style= ""width:200px""alt=""img"">
                            </div>
                        </div>","146","","0","","","","images/shifted_maps/map15_cividis_scaleDef_orientDef_090_darkshift.png","happy","1","15","15","cividis","orientDef","scaleDef","090","darkshift","",""
"","","","","","html-slider-response","34","210098","0.0-30.0","octpmrlkux","3","96606","NaN","<div style=""width:500px;"">
                            <p style=""font-size:50px; font-weight:bold;""
                            >happy</p>
                            <div style=""width:240px; margin: auto;"">
                                <img src=""images/shifted_maps/map10_coolwarm_scaleDef_orientDef_090_darkshift.png"" style= ""width:200px""alt=""img"">
                            </div>
                        </div>","-166","","0","","","","images/shifted_maps/map10_coolwarm_scaleDef_orientDef_090_darkshift.png","happy","1","10","10","coolwarm","orientDef","scaleDef","090","darkshift","",""
"","","","","","html-slider-response","35","212496","0.0-31.0","octpmrlkux","3","96606","NaN","<div style=""width:500px;"">
                            <p style=""font-size:50px; font-weight:bold;""
                            >happy</p>
                            <div style=""width:240px; margin: auto;"">
                                <img src=""images/shifted_maps/map12_RdGy_scaleDef_orientDef_090_lightshift.png"" style= ""width:200px""alt=""img"">
                            </div>
                        </div>","-174","","0","","","","images/shifted_maps/map12_RdGy_scaleDef_orientDef_090_lightshift.png","happy","1","12","12","RdGy","orientDef","scaleDef","090","lightshift","",""
"","","","","","html-slider-response","36","216310","0.0-32.0","octpmrlkux","3","96606","NaN","<div style=""width:500px;"">
                            <p style=""font-size:50px; font-weight:bold;""
                            >happy</p>
                            <div style=""width:240px; margin: auto;"">
                                <img src=""images/shifted_maps/map10_PuRd_scaleRev_orientDef_000_darkshift.png"" style= ""width:200px""alt=""img"">
                            </div>
                        </div>","66","","0","","","","images/shifted_maps/map10_PuRd_scaleRev_orientDef_000_darkshift.png","happy","1","10","10","PuRd","orientDef","scaleRev","000","darkshift","",""
"","","","","","html-slider-response","37","219078","0.0-33.0","octpmrlkux","3","96606","NaN","<div style=""width:500px;"">
                            <p style=""font-size:50px; font-weight:bold;""
                            >happy</p>
                            <div style=""width:240px; margin: auto;"">
                                <img src=""images/shifted_maps/map02_turbo_scaleDef_orientDef_090_darkshift.png"" style= ""width:200px""alt=""img"">
                            </div>
                        </div>","8","","0","","","","images/shifted_maps/map02_turbo_scaleDef_orientDef_090_darkshift.png","happy","1","02","02","turbo","orientDef","scaleDef","090","darkshift","",""
"","","","","","html-slider-response","38","221401","0.0-34.0","octpmrlkux","3","96606","NaN","<div style=""width:500px;"">
                            <p style=""font-size:50px; font-weight:bold;""
                            >happy</p>
                            <div style=""width:240px; margin: auto;"">
                                <img src=""images/shifted_maps/map05_Reds_scaleRev_orientDef_000_darkshift.png"" style= ""width:200px""alt=""img"">
                            </div>
                        </div>","-90","","0","","","","images/shifted_maps/map05_Reds_scaleRev_orientDef_000_darkshift.png","happy","1","05","05","Reds","orientDef","scaleRev","000","darkshift","",""
"","","","","","html-slider-response","39","223727","0.0-35.0","octpmrlkux","3","96606","NaN","<div style=""width:500px;"">
                            <p style=""font-size:50px; font-weight:bold;""
                            >happy</p>
                            <div style=""width:240px; margin: auto;"">
                                <img src=""images/shifted_maps/map05_PuBu_scaleDef_orientDef_090_lightshift.png"" style= ""width:200px""alt=""img"">
                            </div>
                        </div>","-55","","0","","","","images/shifted_maps/map05_PuBu_scaleDef_orientDef_090_lightshift.png","happy","1","05","05","PuBu","orientDef","scaleDef","090","lightshift","",""
"","","","","","html-slider-response","40","228582","0.0-36.0","octpmrlkux","3","96606","NaN","<div style=""width:500px;"">
                            <p style=""font-size:50px; font-weight:bold;""
                            >happy</p>
                            <div style=""width:240px; margin: auto;"">
                                <img src=""images/shifted_maps/map15_cividis_scaleDef_orientDef_090_lightshift.png"" style= ""width:200px""alt=""img"">
                            </div>
                        </div>","22","","0","","","","images/shifted_maps/map15_cividis_scaleDef_orientDef_090_lightshift.png","happy","1","15","15","cividis","orientDef","scaleDef","090","lightshift","",""
"","","","","","html-slider-response","41","231668","0.0-37.0","octpmrlkux","3","96606","NaN","<div style=""width:500px;"">
                            <p style=""font-size:50px; font-weight:bold;""
                            >happy</p>
                            <div style=""width:240px; margin: auto;"">
                                <img src=""images/shifted_maps/map15_YlOrBr_scaleDef_orientDef_270_darkshift.png"" style= ""width:200px""alt=""img"">
                            </div>
                        </div>","-68","","0","","","","images/shifted_maps/map15_YlOrBr_scaleDef_orientDef_270_darkshift.png","happy","1","15","15","YlOrBr","orientDef","scaleDef","270","darkshift","",""
"","","","","","html-slider-response","42","235028","0.0-38.0","octpmrlkux","3","96606","NaN","<div style=""width:500px;"">
                            <p style=""font-size:50px; font-weight:bold;""
                            >happy</p>
                            <div style=""width:240px; margin: auto;"">
                                <img src=""images/shifted_maps/map05_PiYG_scaleDef_orientDef_270_darkshift.png"" style= ""width:200px""alt=""img"">
                            </div>
                        </div>","147","","0","","","","images/shifted_maps/map05_PiYG_scaleDef_orientDef_270_darkshift.png","happy","1","05","05","PiYG","orientDef","scaleDef","270","darkshift","",""
"","","","","","html-slider-response","43","241379","0.0-39.0","octpmrlkux","3","96606","NaN","<div style=""width:500px;"">
                            <p style=""font-size:50px; font-weight:bold;""
                            >happy</p>
                            <div style=""width:240px; margin: auto;"">
                                <img src=""images/shifted_maps/map12_vanimo_scaleRev_orientDef_000_lightshift.png"" style= ""width:200px""alt=""img"">
                            </div>
                        </div>","24","","0","","","","images/shifted_maps/map12_vanimo_scaleRev_orientDef_000_lightshift.png","happy","1","12","12","vanimo","orientDef","scaleRev","000","lightshift","",""
"","","","","","html-slider-response","44","243697","0.0-40.0","octpmrlkux","3","96606","NaN","<div style=""width:500px;"">
                            <p style=""font-size:50px; font-weight:bold;""
                            >happy</p>
                            <div style=""width:240px; margin: auto;"">
                                <img src=""images/shifted_maps/map23_PRGn_scaleDef_orientDef_090_lightshift.png"" style= ""width:200px""alt=""img"">
                            </div>
                        </div>","-58","","0","","","","images/shifted_maps/map23_PRGn_scaleDef_orientDef_090_lightshift.png","happy","1","23","23","PRGn","orientDef","scaleDef","090","lightshift","",""
"","","","","","html-slider-response","45","246741","0.0-41.0","octpmrlkux","3","96606","NaN","<div style=""width:500px;"">
                            <p style=""font-size:50px; font-weight:bold;""
                            >happy</p>
                            <div style=""width:240px; margin: auto;"">
                                <img src=""images/shifted_maps/map26_RdYlGn_scaleRev_orientDef_000_lightshift.png"" style= ""width:200px""alt=""img"">
                            </div>
                        </div>","102","","0","","","","images/shifted_maps/map26_RdYlGn_scaleRev_orientDef_000_lightshift.png","happy","1","26","26","RdYlGn","orientDef","scaleRev","000","lightshift","",""
"","","","","","html-slider-response","46","249821","0.0-42.0","octpmrlkux","3","96606","NaN","<div style=""width:500px;"">
                            <p style=""font-size:50px; font-weight:bold;""
                            >happy</p>
                            <div style=""width:240px; margin: auto;"">
                                <img src=""images/shifted_maps/map23_YlOrBr_scaleRev_orientDef_000_darkshift.png"" style= ""width:200px""alt=""img"">
                            </div>
                        </div>","55","","0","","","","images/shifted_maps/map23_YlOrBr_scaleRev_orientDef_000_darkshift.png","happy","1","23","23","YlOrBr","orientDef","scaleRev","000","darkshift","",""
"","","","","","html-slider-response","47","254677","0.0-43.0","octpmrlkux","3","96606","NaN","<div style=""width:500px;"">
                            <p style=""font-size:50px; font-weight:bold;""
                            >happy</p>
                            <div style=""width:240px; margin: auto;"">
                                <img src=""images/shifted_maps/map02_turbo_scaleRev_orientDef_180_lightshift.png"" style= ""width:200px""alt=""img"">
                            </div>
                        </div>","-48","","0","","","","images/shifted_maps/map02_turbo_scaleRev_orientDef_180_lightshift.png","happy","1","02","02","turbo","orientDef","scaleRev","180","lightshift","",""
"","","","","","html-slider-response","48","257194","0.0-44.0","octpmrlkux","3","96606","NaN","<div style=""width:500px;"">
                            <p style=""font-size:50px; font-weight:bold;""
                            >happy</p>
                            <div style=""width:240px; margin: auto;"">
                                <img src=""images/shifted_maps/map23_RdYlGn_scaleDef_orientDef_270_lightshift.png"" style= ""width:200px""alt=""img"">
                            </div>
                        </div>","-56","","0","","","","images/shifted_maps/map23_RdYlGn_scaleDef_orientDef_270_lightshift.png","happy","1","23","23","RdYlGn","orientDef","scaleDef","270","lightshift","",""
"","","","","","html-slider-response","49","260786","0.0-45.0","octpmrlkux","3","96606","NaN","<div style=""width:500px;"">
                            <p style=""font-size:50px; font-weight:bold;""
                            >happy</p>
                            <div style=""width:240px; margin: auto;"">
                                <img src=""images/shifted_maps/map26_PuOr_scaleDef_orientDef_090_lightshift.png"" style= ""width:200px""alt=""img"">
                            </div>
                        </div>","-90","","0","","","","images/shifted_maps/map26_PuOr_scaleDef_orientDef_090_lightshift.png","happy","1","26","26","PuOr","orientDef","scaleDef","090","lightshift","",""
"","","","","","html-slider-response","50","263019","0.0-46.0","octpmrlkux","3","96606","NaN","<div style=""width:500px;"">
                            <p style=""font-size:50px; font-weight:bold;""
                            >happy</p>
                            <div style=""width:240px; margin: auto;"">
                                <img src=""images/shifted_maps/map10_PuRd_scaleRev_orientDef_000_lightshift.png"" style= ""width:200px""alt=""img"">
                            </div>
                        </div>","30","","0","","","","images/shifted_maps/map10_PuRd_scaleRev_orientDef_000_lightshift.png","happy","1","10","10","PuRd","orientDef","scaleRev","000","lightshift","",""
"","","","","","html-slider-response","51","265925","0.0-47.0","octpmrlkux","3","96606","NaN","<div style=""width:500px;"">
                            <p style=""font-size:50px; font-weight:bold;""
                            >happy</p>
                            <div style=""width:240px; margin: auto;"">
                                <img src=""images/shifted_maps/map13_magma_scaleDef_orientDef_270_lightshift.png"" style= ""width:200px""alt=""img"">
                            </div>
                        </div>","-174","","0","","","","images/shifted_maps/map13_magma_scaleDef_orientDef_270_lightshift.png","happy","1","13","13","magma","orientDef","scaleDef","270","lightshift","",""
"","","","","","html-slider-response","52","268704","0.0-48.0","octpmrlkux","3","96606","NaN","<div style=""width:500px;"">
                            <p style=""font-size:50px; font-weight:bold;""
                            >happy</p>
                            <div style=""width:240px; margin: auto;"">
                                <img src=""images/shifted_maps/map13_BuPu_scaleRev_orientDef_000_darkshift.png"" style= ""width:200px""alt=""img"">
                            </div>
                        </div>","-170","","0","","","","images/shifted_maps/map13_BuPu_scaleRev_orientDef_000_darkshift.png","happy","1","13","13","BuPu","orientDef","scaleRev","000","darkshift","",""
"","","","","","html-slider-response","53","270655","0.0-49.0","octpmrlkux","3","96606","NaN","<div style=""width:500px;"">
                            <p style=""font-size:50px; font-weight:bold;""
                            >happy</p>
                            <div style=""width:240px; margin: auto;"">
                                <img src=""images/shifted_maps/map13_magma_scaleDef_orientDef_270_darkshift.png"" style= ""width:200px""alt=""img"">
                            </div>
                        </div>","32","","0","","","","images/shifted_maps/map13_magma_scaleDef_orientDef_270_darkshift.png","happy","1","13","13","magma","orientDef","scaleDef","270","darkshift","",""
"","","","","","html-slider-response","54","273248","0.0-50.0","octpmrlkux","3","96606","NaN","<div style=""width:500px;"">
                            <p style=""font-size:50px; font-weight:bold;""
                            >happy</p>
                            <div style=""width:240px; margin: auto;"">
                                <img src=""images/shifted_maps/map12_vanimo_scaleRev_orientDef_000_darkshift.png"" style= ""width:200px""alt=""img"">
                            </div>
                        </div>","-13","","0","","","","images/shifted_maps/map12_vanimo_scaleRev_orientDef_000_darkshift.png","happy","1","12","12","vanimo","orientDef","scaleRev","000","darkshift","",""
"","","","","","html-slider-response","55","275663","0.0-51.0","octpmrlkux","3","96606","NaN","<div style=""width:500px;"">
                            <p style=""font-size:50px; font-weight:bold;""
                            >happy</p>
                            <div style=""width:240px; margin: auto;"">
                                <img src=""images/shifted_maps/map27_managua_scaleDef_orientDef_270_darkshift.png"" style= ""width:200px""alt=""img"">
                            </div>
                        </div>","-117","","0","","","","images/shifted_maps/map27_managua_scaleDef_orientDef_270_darkshift.png","happy","1","27","27","managua","orientDef","scaleDef","270","darkshift","",""
"","","","","","html-slider-response","56","278266","0.0-52.0","octpmrlkux","3","96606","NaN","<div style=""width:500px;"">
                            <p style=""font-size:50px; font-weight:bold;""
                            >happy</p>
                            <div style=""width:240px; margin: auto;"">
                                <img src=""images/shifted_maps/map13_BrBG_scaleRev_orientDef_180_lightshift.png"" style= ""width:200px""alt=""img"">
                            </div>
                        </div>","41","","0","","","","images/shifted_maps/map13_BrBG_scaleRev_orientDef_180_lightshift.png","happy","1","13","13","BrBG","orientDef","scaleRev","180","lightshift","",""
"","","","","","html-slider-response","57","280712","0.0-53.0","octpmrlkux","3","96606","NaN","<div style=""width:500px;"">
                            <p style=""font-size:50px; font-weight:bold;""
                            >happy</p>
                            <div style=""width:240px; margin: auto;"">
                                <img src=""images/shifted_maps/map26_RdYlGn_scaleRev_orientDef_000_darkshift.png"" style= ""width:200px""alt=""img"">
                            </div>
                        </div>","-18","","0","","","","images/shifted_maps/map26_RdYlGn_scaleRev_orientDef_000_darkshift.png","happy","1","26","26","RdYlGn","orientDef","scaleRev","000","darkshift","",""
"","","","","","html-button-response","58","283878","0.0-54.0","octpmrlkux","3","96606","2654","<p>You are doing great!<br></br> You are halway done with the current block. When you are ready to continue, click the 'Continue' button.</p>","0","","","","","","","","","","","","","","","","",""
"","","","","","html-slider-response","59","287452","0.0-55.0","octpmrlkux","3","96606","NaN","<div style=""width:500px;"">
                            <p style=""font-size:50px; font-weight:bold;""
                            >happy</p>
                            <div style=""width:240px; margin: auto;"">
                                <img src=""images/shifted_maps/map12_RdGy_scaleRev_orientDef_180_darkshift.png"" style= ""width:200px""alt=""img"">
                            </div>
                        </div>","-150","","0","","","","images/shifted_maps/map12_RdGy_scaleRev_orientDef_180_darkshift.png","happy","1","12","12","RdGy","orientDef","scaleRev","180","darkshift","",""
"","","","","","html-slider-response","60","291493","0.0-56.0","octpmrlkux","3","96606","NaN","<div style=""width:500px;"">
                            <p style=""font-size:50px; font-weight:bold;""
                            >happy</p>
                            <div style=""width:240px; margin: auto;"">
                                <img src=""images/shifted_maps/map12_BuPu_scaleDef_orientDef_270_lightshift.png"" style= ""width:200px""alt=""img"">
                            </div>
                        </div>","-38","","0","","","","images/shifted_maps/map12_BuPu_scaleDef_orientDef_270_lightshift.png","happy","1","12","12","BuPu","orientDef","scaleDef","270","lightshift","",""
"","","","","","html-slider-response","61","294618","0.0-57.0","octpmrlkux","3","96606","NaN","<div style=""width:500px;"">
                            <p style=""font-size:50px; font-weight:bold;""
                            >happy</p>
                            <div style=""width:240px; margin: auto;"">
                                <img src=""images/shifted_maps/map07_PuRd_scaleDef_orientDef_270_darkshift.png"" style= ""width:200px""alt=""img"">
                            </div>
                        </div>","42","","0","","","","images/shifted_maps/map07_PuRd_scaleDef_orientDef_270_darkshift.png","happy","1","07","07","PuRd","orientDef","scaleDef","270","darkshift","",""
"","","","","","html-slider-response","62","297252","0.0-58.0","octpmrlkux","3","96606","NaN","<div style=""width:500px;"">
                            <p style=""font-size:50px; font-weight:bold;""
                            >happy</p>
                            <div style=""width:240px; margin: auto;"">
                                <img src=""images/shifted_maps/map05_PuBu_scaleRev_orientDef_180_lightshift.png"" style= ""width:200px""alt=""img"">
                            </div>
                        </div>","-96","","0","","","","images/shifted_maps/map05_PuBu_scaleRev_orientDef_180_lightshift.png","happy","1","05","05","PuBu","orientDef","scaleRev","180","lightshift","",""
"","","","","","html-slider-response","63","299598","0.0-59.0","octpmrlkux","3","96606","NaN","<div style=""width:500px;"">
                            <p style=""font-size:50px; font-weight:bold;""
                            >happy</p>
                            <div style=""width:240px; margin: auto;"">
                                <img src=""images/shifted_maps/map05_PiYG_scaleDef_orientDef_270_lightshift.png"" style= ""width:200px""alt=""img"">
                            </div>
                        </div>","75","","0","","","","images/shifted_maps/map05_PiYG_scaleDef_orientDef_270_lightshift.png","happy","1","05","05","PiYG","orientDef","scaleDef","270","lightshift","",""
"","","","","","html-slider-response","64","302504","0.0-60.0","octpmrlkux","3","96606","NaN","<div style=""width:500px;"">
                            <p style=""font-size:50px; font-weight:bold;""
                            >happy</p>
                            <div style=""width:240px; margin: auto;"">
                                <img src=""images/shifted_maps/map07_Greys_scaleRev_orientDef_180_lightshift.png"" style= ""width:200px""alt=""img"">
                            </div>
                        </div>","-200","","0","","","","images/shifted_maps/map07_Greys_scaleRev_orientDef_180_lightshift.png","happy","1","07","07","Greys","orientDef","scaleRev","180","lightshift","",""
"","","","","","html-slider-response","65","304995","0.0-61.0","octpmrlkux","3","96606","NaN","<div style=""width:500px;"">
                            <p style=""font-size:50px; font-weight:bold;""
                            >happy</p>
                            <div style=""width:240px; margin: auto;"">
                                <img src=""images/shifted_maps/map23_PRGn_scaleRev_orientDef_180_lightshift.png"" style= ""width:200px""alt=""img"">
                            </div>
                        </div>","123","","0","","","","images/shifted_maps/map23_PRGn_scaleRev_orientDef_180_lightshift.png","happy","1","23","23","PRGn","orientDef","scaleRev","180","lightshift","",""
"","","","","","html-slider-response","66","310101","0.0-62.0","octpmrlkux","3","96606","NaN","<div style=""width:500px;"">
                            <p style=""font-size:50px; font-weight:bold;""
                            >happy</p>
                            <div style=""width:240px; margin: auto;"">
                                <img src=""images/shifted_maps/map13_BrBG_scaleDef_orientDef_090_lightshift.png"" style= ""width:200px""alt=""img"">
                            </div>
                        </div>","3","","0","","","","images/shifted_maps/map13_BrBG_scaleDef_orientDef_090_lightshift.png","happy","1","13","13","BrBG","orientDef","scaleDef","090","lightshift","",""
"","","","","","html-slider-response","67","312750","0.0-63.0","octpmrlkux","3","96606","NaN","<div style=""width:500px;"">
                            <p style=""font-size:50px; font-weight:bold;""
                            >happy</p>
                            <div style=""width:240px; margin: auto;"">
                                <img src=""images/shifted_maps/map07_PuRd_scaleDef_orientDef_270_lightshift.png"" style= ""width:200px""alt=""img"">
                            </div>
                        </div>","64","","0","","","","images/shifted_maps/map07_PuRd_scaleDef_orientDef_270_lightshift.png","happy","1","07","07","PuRd","orientDef","scaleDef","270","lightshift","",""
"","","","","","html-slider-response","68","315528","0.0-64.0","octpmrlkux","3","96606","NaN","<div style=""width:500px;"">
                            <p style=""font-size:50px; font-weight:bold;""
                            >happy</p>
                            <div style=""width:240px; margin: auto;"">
                                <img src=""images/shifted_maps/map27_BuGn_scaleRev_orientDef_000_lightshift.png"" style= ""width:200px""alt=""img"">
                            </div>
                        </div>","149","","0","","","","images/shifted_maps/map27_BuGn_scaleRev_orientDef_000_lightshift.png","happy","1","27","27","BuGn","orientDef","scaleRev","000","lightshift","",""
"","","","","","html-slider-response","69","319515","0.0-65.0","octpmrlkux","3","96606","NaN","<div style=""width:500px;"">
                            <p style=""font-size:50px; font-weight:bold;""
                            >happy</p>
                            <div style=""width:240px; margin: auto;"">
                                <img src=""images/shifted_maps/map26_PuOr_scaleDef_orientDef_090_darkshift.png"" style= ""width:200px""alt=""img"">
                            </div>
                        </div>","14","","0","","","","images/shifted_maps/map26_PuOr_scaleDef_orientDef_090_darkshift.png","happy","1","26","26","PuOr","orientDef","scaleDef","090","darkshift","",""
"","","","","","html-slider-response","70","323095","0.0-66.0","octpmrlkux","3","96606","NaN","<div style=""width:500px;"">
                            <p style=""font-size:50px; font-weight:bold;""
                            >happy</p>
                            <div style=""width:240px; margin: auto;"">
                                <img src=""images/shifted_maps/map27_berlin_scaleDef_orientDef_090_darkshift.png"" style= ""width:200px""alt=""img"">
                            </div>
                        </div>","30","","0","","","","images/shifted_maps/map27_berlin_scaleDef_orientDef_090_darkshift.png","happy","1","27","27","berlin","orientDef","scaleDef","090","darkshift","",""
"","","","","","html-slider-response","71","325227","0.0-67.0","octpmrlkux","3","96606","NaN","<div style=""width:500px;"">
                            <p style=""font-size:50px; font-weight:bold;""
                            >happy</p>
                            <div style=""width:240px; margin: auto;"">
                                <img src=""images/shifted_maps/map15_cividis_scaleRev_orientDef_180_lightshift.png"" style= ""width:200px""alt=""img"">
                            </div>
                        </div>","160","","0","","","","images/shifted_maps/map15_cividis_scaleRev_orientDef_180_lightshift.png","happy","1","15","15","cividis","orientDef","scaleRev","180","lightshift","",""
"","","","","","html-slider-response","72","328001","0.0-68.0","octpmrlkux","3","96606","NaN","<div style=""width:500px;"">
                            <p style=""font-size:50px; font-weight:bold;""
                            >happy</p>
                            <div style=""width:240px; margin: auto;"">
                                <img src=""images/shifted_maps/map05_PuBu_scaleRev_orientDef_180_darkshift.png"" style= ""width:200px""alt=""img"">
                            </div>
                        </div>","12","","0","","","","images/shifted_maps/map05_PuBu_scaleRev_orientDef_180_darkshift.png","happy","1","05","05","PuBu","orientDef","scaleRev","180","darkshift","",""
"","","","","","html-slider-response","73","330180","0.0-69.0","octpmrlkux","3","96606","NaN","<div style=""width:500px;"">
                            <p style=""font-size:50px; font-weight:bold;""
                            >happy</p>
                            <div style=""width:240px; margin: auto;"">
                                <img src=""images/shifted_maps/map26_BuGn_scaleDef_orientDef_270_lightshift.png"" style= ""width:200px""alt=""img"">
                            </div>
                        </div>","43","","0","","","","images/shifted_maps/map26_BuGn_scaleDef_orientDef_270_lightshift.png","happy","1","26","26","BuGn","orientDef","scaleDef","270","lightshift","",""
"","","","","","html-slider-response","74","332803","0.0-70.0","octpmrlkux","3","96606","NaN","<div style=""width:500px;"">
                            <p style=""font-size:50px; font-weight:bold;""
                            >happy</p>
                            <div style=""width:240px; margin: auto;"">
                                <img src=""images/shifted_maps/map12_RdGy_scaleDef_orientDef_090_darkshift.png"" style= ""width:200px""alt=""img"">
                            </div>
                        </div>","-178","","0","","","","images/shifted_maps/map12_RdGy_scaleDef_orientDef_090_darkshift.png","happy","1","12","12","RdGy","orientDef","scaleDef","090","darkshift","",""
"","","","","","html-slider-response","75","335223","0.0-71.0","octpmrlkux","3","96606","NaN","<div style=""width:500px;"">
                            <p style=""font-size:50px; font-weight:bold;""
                            >happy</p>
                            <div style=""width:240px; margin: auto;"">
                                <img src=""images/shifted_maps/map02_Reds_scaleDef_orientDef_270_lightshift.png"" style= ""width:200px""alt=""img"">
                            </div>
                        </div>","-62","","0","","","","images/shifted_maps/map02_Reds_scaleDef_orientDef_270_lightshift.png","happy","1","02","02","Reds","orientDef","scaleDef","270","lightshift","",""
"","","","","","html-slider-response","76","337492","0.0-72.0","octpmrlkux","3","96606","NaN","<div style=""width:500px;"">
                            <p style=""font-size:50px; font-weight:bold;""
                            >happy</p>
                            <div style=""width:240px; margin: auto;"">
                                <img src=""images/shifted_maps/map12_BuPu_scaleDef_orientDef_270_darkshift.png"" style= ""width:200px""alt=""img"">
                            </div>
                        </div>","-62","","0","","","","images/shifted_maps/map12_BuPu_scaleDef_orientDef_270_darkshift.png","happy","1","12","12","BuPu","orientDef","scaleDef","270","darkshift","",""
"","","","","","html-slider-response","77","339858","0.0-73.0","octpmrlkux","3","96606","NaN","<div style=""width:500px;"">
                            <p style=""font-size:50px; font-weight:bold;""
                            >happy</p>
                            <div style=""width:240px; margin: auto;"">
                                <img src=""images/shifted_maps/map10_vanimo_scaleDef_orientDef_270_lightshift.png"" style= ""width:200px""alt=""img"">
                            </div>
                        </div>","26","","0","","","","images/shifted_maps/map10_vanimo_scaleDef_orientDef_270_lightshift.png","happy","1","10","10","vanimo","orientDef","scaleDef","270","lightshift","",""
"","","","","","html-slider-response","78","342329","0.0-74.0","octpmrlkux","3","96606","NaN","<div style=""width:500px;"">
                            <p style=""font-size:50px; font-weight:bold;""
                            >happy</p>
                            <div style=""width:240px; margin: auto;"">
                                <img src=""images/shifted_maps/map07_PiYG_scaleRev_orientDef_000_darkshift.png"" style= ""width:200px""alt=""img"">
                            </div>
                        </div>","90","","0","","","","images/shifted_maps/map07_PiYG_scaleRev_orientDef_000_darkshift.png","happy","1","07","07","PiYG","orientDef","scaleRev","000","darkshift","",""
"","","","","","html-slider-response","79","344425","0.0-75.0","octpmrlkux","3","96606","NaN","<div style=""width:500px;"">
                            <p style=""font-size:50px; font-weight:bold;""
                            >happy</p>
                            <div style=""width:240px; margin: auto;"">
                                <img src=""images/shifted_maps/map12_RdGy_scaleRev_orientDef_180_lightshift.png"" style= ""width:200px""alt=""img"">
                            </div>
                        </div>","-189","","0","","","","images/shifted_maps/map12_RdGy_scaleRev_orientDef_180_lightshift.png","happy","1","12","12","RdGy","orientDef","scaleRev","180","lightshift","",""
"","","","","","html-slider-response","80","351252","0.0-76.0","octpmrlkux","3","96606","NaN","<div style=""width:500px;"">
                            <p style=""font-size:50px; font-weight:bold;""
                            >happy</p>
                            <div style=""width:240px; margin: auto;"">
                                <img src=""images/shifted_maps/map02_turbo_scaleDef_orientDef_090_lightshift.png"" style= ""width:200px""alt=""img"">
                            </div>
                        </div>","14","","0","","","","images/shifted_maps/map02_turbo_scaleDef_orientDef_090_lightshift.png","happy","1","02","02","turbo","orientDef","scaleDef","090","lightshift","",""
"","","","","","html-slider-response","81","354278","0.0-77.0","octpmrlkux","3","96606","NaN","<div style=""width:500px;"">
                            <p style=""font-size:50px; font-weight:bold;""
                            >happy</p>
                            <div style=""width:240px; margin: auto;"">
                                <img src=""images/shifted_maps/map13_BrBG_scaleRev_orientDef_180_darkshift.png"" style= ""width:200px""alt=""img"">
                            </div>
                        </div>","-84","","0","","","","images/shifted_maps/map13_BrBG_scaleRev_orientDef_180_darkshift.png","happy","1","13","13","BrBG","orientDef","scaleRev","180","darkshift","",""
"","","","","","html-slider-response","82","356821","0.0-78.0","octpmrlkux","3","96606","NaN","<div style=""width:500px;"">
                            <p style=""font-size:50px; font-weight:bold;""
                            >happy</p>
                            <div style=""width:240px; margin: auto;"">
                                <img src=""images/shifted_maps/map13_BuPu_scaleRev_orientDef_000_lightshift.png"" style= ""width:200px""alt=""img"">
                            </div>
                        </div>","-35","","0","","","","images/shifted_maps/map13_BuPu_scaleRev_orientDef_000_lightshift.png","happy","1","13","13","BuPu","orientDef","scaleRev","000","lightshift","",""
"","","","","","html-slider-response","83","360469","0.0-79.0","octpmrlkux","3","96606","NaN","<div style=""width:500px;"">
                            <p style=""font-size:50px; font-weight:bold;""
                            >happy</p>
                            <div style=""width:240px; margin: auto;"">
                                <img src=""images/shifted_maps/map23_RdYlGn_scaleDef_orientDef_270_darkshift.png"" style= ""width:200px""alt=""img"">
                            </div>
                        </div>","98","","0","","","","images/shifted_maps/map23_RdYlGn_scaleDef_orientDef_270_darkshift.png","happy","1","23","23","RdYlGn","orientDef","scaleDef","270","darkshift","",""
"","","","","","html-slider-response","84","363631","0.0-80.0","octpmrlkux","3","96606","NaN","<div style=""width:500px;"">
                            <p style=""font-size:50px; font-weight:bold;""
                            >happy</p>
                            <div style=""width:240px; margin: auto;"">
                                <img src=""images/shifted_maps/map02_turbo_scaleRev_orientDef_180_darkshift.png"" style= ""width:200px""alt=""img"">
                            </div>
                        </div>","43","","0","","","","images/shifted_maps/map02_turbo_scaleRev_orientDef_180_darkshift.png","happy","1","02","02","turbo","orientDef","scaleRev","180","darkshift","",""
"","","","","","html-slider-response","85","365804","0.0-81.0","octpmrlkux","3","96606","NaN","<div style=""width:500px;"">
                            <p style=""font-size:50px; font-weight:bold;""
                            >happy</p>
                            <div style=""width:240px; margin: auto;"">
                                <img src=""images/shifted_maps/map27_managua_scaleDef_orientDef_270_lightshift.png"" style= ""width:200px""alt=""img"">
                            </div>
                        </div>","88","","0","","","","images/shifted_maps/map27_managua_scaleDef_orientDef_270_lightshift.png","happy","1","27","27","managua","orientDef","scaleDef","270","lightshift","",""
"","","","","","html-slider-response","86","368079","0.0-82.0","octpmrlkux","3","96606","NaN","<div style=""width:500px;"">
                            <p style=""font-size:50px; font-weight:bold;""
                            >happy</p>
                            <div style=""width:240px; margin: auto;"">
                                <img src=""images/shifted_maps/map07_Greys_scaleDef_orientDef_090_lightshift.png"" style= ""width:200px""alt=""img"">
                            </div>
                        </div>","-156","","0","","","","images/shifted_maps/map07_Greys_scaleDef_orientDef_090_lightshift.png","happy","1","07","07","Greys","orientDef","scaleDef","090","lightshift","",""
"","","","","","html-slider-response","87","371270","0.0-83.0","octpmrlkux","3","96606","NaN","<div style=""width:500px;"">
                            <p style=""font-size:50px; font-weight:bold;""
                            >happy</p>
                            <div style=""width:240px; margin: auto;"">
                                <img src=""images/shifted_maps/map02_managua_scaleRev_orientDef_000_lightshift.png"" style= ""width:200px""alt=""img"">
                            </div>
                        </div>","-10","","0","","","","images/shifted_maps/map02_managua_scaleRev_orientDef_000_lightshift.png","happy","1","02","02","managua","orientDef","scaleRev","000","lightshift","",""
"","","","","","html-slider-response","88","373661","0.0-84.0","octpmrlkux","3","96606","NaN","<div style=""width:500px;"">
                            <p style=""font-size:50px; font-weight:bold;""
                            >happy</p>
                            <div style=""width:240px; margin: auto;"">
                                <img src=""images/shifted_maps/map05_Reds_scaleRev_orientDef_000_lightshift.png"" style= ""width:200px""alt=""img"">
                            </div>
                        </div>","-190","","0","","","","images/shifted_maps/map05_Reds_scaleRev_orientDef_000_lightshift.png","happy","1","05","05","Reds","orientDef","scaleRev","000","lightshift","",""
"","","","","","html-slider-response","89","376093","0.0-85.0","octpmrlkux","3","96606","NaN","<div style=""width:500px;"">
                            <p style=""font-size:50px; font-weight:bold;""
                            >happy</p>
                            <div style=""width:240px; margin: auto;"">
                                <img src=""images/shifted_maps/map10_coolwarm_scaleDef_orientDef_090_lightshift.png"" style= ""width:200px""alt=""img"">
                            </div>
                        </div>","90","","0","","","","images/shifted_maps/map10_coolwarm_scaleDef_orientDef_090_lightshift.png","happy","1","10","10","coolwarm","orientDef","scaleDef","090","lightshift","",""
"","","","","","html-slider-response","90","378108","0.0-86.0","octpmrlkux","3","96606","NaN","<div style=""width:500px;"">
                            <p style=""font-size:50px; font-weight:bold;""
                            >happy</p>
                            <div style=""width:240px; margin: auto;"">
                                <img src=""images/shifted_maps/map26_BuGn_scaleDef_orientDef_270_darkshift.png"" style= ""width:200px""alt=""img"">
                            </div>
                        </div>","148","","0","","","","images/shifted_maps/map26_BuGn_scaleDef_orientDef_270_darkshift.png","happy","1","26","26","BuGn","orientDef","scaleDef","270","darkshift","",""
"","","","","","html-slider-response","91","380326","0.0-87.0","octpmrlkux","3","96606","NaN","<div style=""width:500px;"">
                            <p style=""font-size:50px; font-weight:bold;""
                            >happy</p>
                            <div style=""width:240px; margin: auto;"">
                                <img src=""images/shifted_maps/map10_coolwarm_scaleRev_orientDef_180_darkshift.png"" style= ""width:200px""alt=""img"">
                            </div>
                        </div>","30","","0","","","","images/shifted_maps/map10_coolwarm_scaleRev_orientDef_180_darkshift.png","happy","1","10","10","coolwarm","orientDef","scaleRev","180","darkshift","",""
"","","","","","html-slider-response","92","382964","0.0-88.0","octpmrlkux","3","96606","NaN","<div style=""width:500px;"">
                            <p style=""font-size:50px; font-weight:bold;""
                            >happy</p>
                            <div style=""width:240px; margin: auto;"">
                                <img src=""images/shifted_maps/map27_berlin_scaleDef_orientDef_090_lightshift.png"" style= ""width:200px""alt=""img"">
                            </div>
                        </div>","80","","0","","","","images/shifted_maps/map27_berlin_scaleDef_orientDef_090_lightshift.png","happy","1","27","27","berlin","orientDef","scaleDef","090","lightshift","",""
"","","","","","html-slider-response","93","385392","0.0-89.0","octpmrlkux","3","96606","NaN","<div style=""width:500px;"">
                            <p style=""font-size:50px; font-weight:bold;""
                            >happy</p>
                            <div style=""width:240px; margin: auto;"">
                                <img src=""images/shifted_maps/map10_coolwarm_scaleRev_orientDef_180_lightshift.png"" style= ""width:200px""alt=""img"">
                            </div>
                        </div>","-146","","0","","","","images/shifted_maps/map10_coolwarm_scaleRev_orientDef_180_lightshift.png","happy","1","10","10","coolwarm","orientDef","scaleRev","180","lightshift","",""
"","","","","","html-slider-response","94","387384","0.0-90.0","octpmrlkux","3","96606","NaN","<div style=""width:500px;"">
                            <p style=""font-size:50px; font-weight:bold;""
                            >happy</p>
                            <div style=""width:240px; margin: auto;"">
                                <img src=""images/shifted_maps/map10_vanimo_scaleDef_orientDef_270_darkshift.png"" style= ""width:200px""alt=""img"">
                            </div>
                        </div>","17","","0","","","","images/shifted_maps/map10_vanimo_scaleDef_orientDef_270_darkshift.png","happy","1","10","10","vanimo","orientDef","scaleDef","270","darkshift","",""
"","","","","","html-slider-response","95","389605","0.0-91.0","octpmrlkux","3","96606","NaN","<div style=""width:500px;"">
                            <p style=""font-size:50px; font-weight:bold;""
                            >happy</p>
                            <div style=""width:240px; margin: auto;"">
                                <img src=""images/shifted_maps/map15_cividis_scaleRev_orientDef_180_darkshift.png"" style= ""width:200px""alt=""img"">
                            </div>
                        </div>","-111","","0","","","","images/shifted_maps/map15_cividis_scaleRev_orientDef_180_darkshift.png","happy","1","15","15","cividis","orientDef","scaleRev","180","darkshift","",""
"","","","","","html-slider-response","96","392498","0.0-92.0","octpmrlkux","3","96606","NaN","<div style=""width:500px;"">
                            <p style=""font-size:50px; font-weight:bold;""
                            >happy</p>
                            <div style=""width:240px; margin: auto;"">
                                <img src=""images/shifted_maps/map23_YlOrBr_scaleRev_orientDef_000_lightshift.png"" style= ""width:200px""alt=""img"">
                            </div>
                        </div>","-57","","0","","","","images/shifted_maps/map23_YlOrBr_scaleRev_orientDef_000_lightshift.png","happy","1","23","23","YlOrBr","orientDef","scaleRev","000","lightshift","",""
"","","","","","html-slider-response","97","395000","0.0-93.0","octpmrlkux","3","96606","NaN","<div style=""width:500px;"">
                            <p style=""font-size:50px; font-weight:bold;""
                            >happy</p>
                            <div style=""width:240px; margin: auto;"">
                                <img src=""images/shifted_maps/map15_magma_scaleRev_orientDef_000_darkshift.png"" style= ""width:200px""alt=""img"">
                            </div>
                        </div>","-117","","0","","","","images/shifted_maps/map15_magma_scaleRev_orientDef_000_darkshift.png","happy","1","15","15","magma","orientDef","scaleRev","000","darkshift","",""
"","","","","","html-slider-response","98","397678","0.0-94.0","octpmrlkux","3","96606","NaN","<div style=""width:500px;"">
                            <p style=""font-size:50px; font-weight:bold;""
                            >happy</p>
                            <div style=""width:240px; margin: auto;"">
                                <img src=""images/shifted_maps/map02_managua_scaleRev_orientDef_000_darkshift.png"" style= ""width:200px""alt=""img"">
                            </div>
                        </div>","58","","0","","","","images/shifted_maps/map02_managua_scaleRev_orientDef_000_darkshift.png","happy","1","02","02","managua","orientDef","scaleRev","000","darkshift","",""
"","","","","","html-button-response","99","399515","0.0-95.0","octpmrlkux","3","96606","1332","<p>Great Job! You've finished block 1.<br></br> You have 4 block(s) left to go.<br></br></p>","0","","","","","","","","","","","","","","","","",""
"","","","","","html-button-response","100","400650","0.0-96.0","octpmrlkux","3","96606","1135","<p>In this block of trials, you will be asked to rate how much you associate each map with:</p > <p style = 'font-size:150%; font-weight: bold'>disgust</p><br></br>","0","","","","","","","","","","","","","","","","",""
"","","","","","html-slider-response","101","402970","0.0-97.0","octpmrlkux","3","96606","NaN","<div style=""width:500px;"">
                            <p style=""font-size:50px; font-weight:bold;""
                            >disgust</p>
                            <div style=""width:240px; margin: auto;"">
                                <img src=""images/shifted_maps/map23_YlOrBr_scaleRev_orientDef_000_darkshift.png"" style= ""width:200px""alt=""img"">
                            </div>
                        </div>","78","","0","","","","images/shifted_maps/map23_YlOrBr_scaleRev_orientDef_000_darkshift.png","disgust","1","23","23","YlOrBr","orientDef","scaleRev","000","darkshift","",""
"","","","","","html-slider-response","102","406351","0.0-98.0","octpmrlkux","3","96606","NaN","<div style=""width:500px;"">
                            <p style=""font-size:50px; font-weight:bold;""
                            >disgust</p>
                            <div style=""width:240px; margin: auto;"">
                                <img src=""images/shifted_maps/map07_Greys_scaleDef_orientDef_090_darkshift.png"" style= ""width:200px""alt=""img"">
                            </div>
                        </div>","82","","0","","","","images/shifted_maps/map07_Greys_scaleDef_orientDef_090_darkshift.png","disgust","1","07","07","Greys","orientDef","scaleDef","090","darkshift","",""
"","","","","","html-slider-response","103","408946","0.0-99.0","octpmrlkux","3","96606","NaN","<div style=""width:500px;"">
                            <p style=""font-size:50px; font-weight:bold;""
                            >disgust</p>
                            <div style=""width:240px; margin: auto;"">
                                <img src=""images/shifted_maps/map27_berlin_scaleDef_orientDef_090_lightshift.png"" style= ""width:200px""alt=""img"">
                            </div>
                        </div>","-105","","0","","","","images/shifted_maps/map27_berlin_scaleDef_orientDef_090_lightshift.png","disgust","1","27","27","berlin","orientDef","scaleDef","090","lightshift","",""
"","","","","","html-slider-response","104","411263","0.0-100.0","octpmrlkux","3","96606","NaN","<div style=""width:500px;"">
                            <p style=""font-size:50px; font-weight:bold;""
                            >disgust</p>
                            <div style=""width:240px; margin: auto;"">
                                <img src=""images/shifted_maps/map10_vanimo_scaleDef_orientDef_270_darkshift.png"" style= ""width:200px""alt=""img"">
                            </div>
                        </div>","85","","0","","","","images/shifted_maps/map10_vanimo_scaleDef_orientDef_270_darkshift.png","disgust","1","10","10","vanimo","orientDef","scaleDef","270","darkshift","",""
"","","","","","html-slider-response","105","414057","0.0-101.0","octpmrlkux","3","96606","NaN","<div style=""width:500px;"">
                            <p style=""font-size:50px; font-weight:bold;""
                            >disgust</p>
                            <div style=""width:240px; margin: auto;"">
                                <img src=""images/shifted_maps/map05_Reds_scaleRev_orientDef_000_darkshift.png"" style= ""width:200px""alt=""img"">
                            </div>
                        </div>","51","","0","","","","images/shifted_maps/map05_Reds_scaleRev_orientDef_000_darkshift.png","disgust","1","05","05","Reds","orientDef","scaleRev","000","darkshift","",""
"","","","","","html-slider-response","106","417709","0.0-102.0","octpmrlkux","3","96606","NaN","<div style=""width:500px;"">
                            <p style=""font-size:50px; font-weight:bold;""
                            >disgust</p>
                            <div style=""width:240px; margin: auto;"">
                                <img src=""images/shifted_maps/map27_BuGn_scaleRev_orientDef_000_lightshift.png"" style= ""width:200px""alt=""img"">
                            </div>
                        </div>","82","","0","","","","images/shifted_maps/map27_BuGn_scaleRev_orientDef_000_lightshift.png","disgust","1","27","27","BuGn","orientDef","scaleRev","000","lightshift","",""
"","","","","","html-slider-response","107","425615","0.0-103.0","octpmrlkux","3","96606","NaN","<div style=""width:500px;"">
                            <p style=""font-size:50px; font-weight:bold;""
                            >disgust</p>
                            <div style=""width:240px; margin: auto;"">
                                <img src=""images/shifted_maps/map13_BrBG_scaleRev_orientDef_180_lightshift.png"" style= ""width:200px""alt=""img"">
                            </div>
                        </div>","-18","","0","","","","images/shifted_maps/map13_BrBG_scaleRev_orientDef_180_lightshift.png","disgust","1","13","13","BrBG","orientDef","scaleRev","180","lightshift","",""
"","","","","","html-slider-response","108","428098","0.0-104.0","octpmrlkux","3","96606","NaN","<div style=""width:500px;"">
                            <p style=""font-size:50px; font-weight:bold;""
                            >disgust</p>
                            <div style=""width:240px; margin: auto;"">
                                <img src=""images/shifted_maps/map05_PuBu_scaleRev_orientDef_180_lightshift.png"" style= ""width:200px""alt=""img"">
                            </div>
                        </div>","-120","","0","","","","images/shifted_maps/map05_PuBu_scaleRev_orientDef_180_lightshift.png","disgust","1","05","05","PuBu","orientDef","scaleRev","180","lightshift","",""
"","","","","","html-slider-response","109","430927","0.0-105.0","octpmrlkux","3","96606","NaN","<div style=""width:500px;"">
                            <p style=""font-size:50px; font-weight:bold;""
                            >disgust</p>
                            <div style=""width:240px; margin: auto;"">
                                <img src=""images/shifted_maps/map27_berlin_scaleRev_orientDef_180_darkshift.png"" style= ""width:200px""alt=""img"">
                            </div>
                        </div>","-138","","0","","","","images/shifted_maps/map27_berlin_scaleRev_orientDef_180_darkshift.png","disgust","1","27","27","berlin","orientDef","scaleRev","180","darkshift","",""
"","","","","","html-slider-response","110","433473","0.0-106.0","octpmrlkux","3","96606","NaN","<div style=""width:500px;"">
                            <p style=""font-size:50px; font-weight:bold;""
                            >disgust</p>
                            <div style=""width:240px; margin: auto;"">
                                <img src=""images/shifted_maps/map05_Reds_scaleRev_orientDef_000_lightshift.png"" style= ""width:200px""alt=""img"">
                            </div>
                        </div>","-62","","0","","","","images/shifted_maps/map05_Reds_scaleRev_orientDef_000_lightshift.png","disgust","1","05","05","Reds","orientDef","scaleRev","000","lightshift","",""
"","","","","","html-slider-response","111","435922","0.0-107.0","octpmrlkux","3","96606","NaN","<div style=""width:500px;"">
                            <p style=""font-size:50px; font-weight:bold;""
                            >disgust</p>
                            <div style=""width:240px; margin: auto;"">
                                <img src=""images/shifted_maps/map15_magma_scaleRev_orientDef_000_lightshift.png"" style= ""width:200px""alt=""img"">
                            </div>
                        </div>","42","","0","","","","images/shifted_maps/map15_magma_scaleRev_orientDef_000_lightshift.png","disgust","1","15","15","magma","orientDef","scaleRev","000","lightshift","",""
"","","","","","html-slider-response","112","437872","0.0-108.0","octpmrlkux","3","96606","NaN","<div style=""width:500px;"">
                            <p style=""font-size:50px; font-weight:bold;""
                            >disgust</p>
                            <div style=""width:240px; margin: auto;"">
                                <img src=""images/shifted_maps/map26_BuGn_scaleDef_orientDef_270_lightshift.png"" style= ""width:200px""alt=""img"">
                            </div>
                        </div>","42","","0","","","","images/shifted_maps/map26_BuGn_scaleDef_orientDef_270_lightshift.png","disgust","1","26","26","BuGn","orientDef","scaleDef","270","lightshift","",""
"","","","","","html-slider-response","113","440203","0.0-109.0","octpmrlkux","3","96606","NaN","<div style=""width:500px;"">
                            <p style=""font-size:50px; font-weight:bold;""
                            >disgust</p>
                            <div style=""width:240px; margin: auto;"">
                                <img src=""images/shifted_maps/map13_BrBG_scaleRev_orientDef_180_darkshift.png"" style= ""width:200px""alt=""img"">
                            </div>
                        </div>","147","","0","","","","images/shifted_maps/map13_BrBG_scaleRev_orientDef_180_darkshift.png","disgust","1","13","13","BrBG","orientDef","scaleRev","180","darkshift","",""
"","","","","","html-slider-response","114","442376","0.0-110.0","octpmrlkux","3","96606","NaN","<div style=""width:500px;"">
                            <p style=""font-size:50px; font-weight:bold;""
                            >disgust</p>
                            <div style=""width:240px; margin: auto;"">
                                <img src=""images/shifted_maps/map27_managua_scaleDef_orientDef_270_darkshift.png"" style= ""width:200px""alt=""img"">
                            </div>
                        </div>","-118","","0","","","","images/shifted_maps/map27_managua_scaleDef_orientDef_270_darkshift.png","disgust","1","27","27","managua","orientDef","scaleDef","270","darkshift","",""
"","","","","","html-slider-response","115","444570","0.0-111.0","octpmrlkux","3","96606","NaN","<div style=""width:500px;"">
                            <p style=""font-size:50px; font-weight:bold;""
                            >disgust</p>
                            <div style=""width:240px; margin: auto;"">
                                <img src=""images/shifted_maps/map12_vanimo_scaleRev_orientDef_000_darkshift.png"" style= ""width:200px""alt=""img"">
                            </div>
                        </div>","14","","0","","","","images/shifted_maps/map12_vanimo_scaleRev_orientDef_000_darkshift.png","disgust","1","12","12","vanimo","orientDef","scaleRev","000","darkshift","",""
"","","","","","html-slider-response","116","447151","0.0-112.0","octpmrlkux","3","96606","NaN","<div style=""width:500px;"">
                            <p style=""font-size:50px; font-weight:bold;""
                            >disgust</p>
                            <div style=""width:240px; margin: auto;"">
                                <img src=""images/shifted_maps/map23_PRGn_scaleRev_orientDef_180_lightshift.png"" style= ""width:200px""alt=""img"">
                            </div>
                        </div>","-73","","0","","","","images/shifted_maps/map23_PRGn_scaleRev_orientDef_180_lightshift.png","disgust","1","23","23","PRGn","orientDef","scaleRev","180","lightshift","",""
"","","","","","html-slider-response","117","449299","0.0-113.0","octpmrlkux","3","96606","NaN","<div style=""width:500px;"">
                            <p style=""font-size:50px; font-weight:bold;""
                            >disgust</p>
                            <div style=""width:240px; margin: auto;"">
                                <img src=""images/shifted_maps/map27_managua_scaleDef_orientDef_270_lightshift.png"" style= ""width:200px""alt=""img"">
                            </div>
                        </div>","154","","0","","","","images/shifted_maps/map27_managua_scaleDef_orientDef_270_lightshift.png","disgust","1","27","27","managua","orientDef","scaleDef","270","lightshift","",""
"","","","","","html-slider-response","118","451233","0.0-114.0","octpmrlkux","3","96606","NaN","<div style=""width:500px;"">
                            <p style=""font-size:50px; font-weight:bold;""
                            >disgust</p>
                            <div style=""width:240px; margin: auto;"">
                                <img src=""images/shifted_maps/map23_PRGn_scaleDef_orientDef_090_lightshift.png"" style= ""width:200px""alt=""img"">
                            </div>
                        </div>","37","","0","","","","images/shifted_maps/map23_PRGn_scaleDef_orientDef_090_lightshift.png","disgust","1","23","23","PRGn","orientDef","scaleDef","090","lightshift","",""
"","","","","","html-slider-response","119","453436","0.0-115.0","octpmrlkux","3","96606","NaN","<div style=""width:500px;"">
                            <p style=""font-size:50px; font-weight:bold;""
                            >disgust</p>
                            <div style=""width:240px; margin: auto;"">
                                <img src=""images/shifted_maps/map13_magma_scaleDef_orientDef_270_darkshift.png"" style= ""width:200px""alt=""img"">
                            </div>
                        </div>","-68","","0","","","","images/shifted_maps/map13_magma_scaleDef_orientDef_270_darkshift.png","disgust","1","13","13","magma","orientDef","scaleDef","270","darkshift","",""
"","","","","","html-slider-response","120","456047","0.0-116.0","octpmrlkux","3","96606","NaN","<div style=""width:500px;"">
                            <p style=""font-size:50px; font-weight:bold;""
                            >disgust</p>
                            <div style=""width:240px; margin: auto;"">
                                <img src=""images/shifted_maps/map10_coolwarm_scaleRev_orientDef_180_lightshift.png"" style= ""width:200px""alt=""img"">
                            </div>
                        </div>","35","","0","","","","images/shifted_maps/map10_coolwarm_scaleRev_orientDef_180_lightshift.png","disgust","1","10","10","coolwarm","orientDef","scaleRev","180","lightshift","",""
"","","","","","html-slider-response","121","458021","0.0-117.0","octpmrlkux","3","96606","NaN","<div style=""width:500px;"">
                            <p style=""font-size:50px; font-weight:bold;""
                            >disgust</p>
                            <div style=""width:240px; margin: auto;"">
                                <img src=""images/shifted_maps/map15_cividis_scaleDef_orientDef_090_lightshift.png"" style= ""width:200px""alt=""img"">
                            </div>
                        </div>","107","","0","","","","images/shifted_maps/map15_cividis_scaleDef_orientDef_090_lightshift.png","disgust","1","15","15","cividis","orientDef","scaleDef","090","lightshift","",""
"","","","","","html-slider-response","122","460490","0.0-118.0","octpmrlkux","3","96606","NaN","<div style=""width:500px;"">
                            <p style=""font-size:50px; font-weight:bold;""
                            >disgust</p>
                            <div style=""width:240px; margin: auto;"">
                                <img src=""images/shifted_maps/map12_vanimo_scaleRev_orientDef_000_lightshift.png"" style= ""width:200px""alt=""img"">
                            </div>
                        </div>","-71","","0","","","","images/shifted_maps/map12_vanimo_scaleRev_orientDef_000_lightshift.png","disgust","1","12","12","vanimo","orientDef","scaleRev","000","lightshift","",""
"","","","","","html-slider-response","123","462849","0.0-119.0","octpmrlkux","3","96606","NaN","<div style=""width:500px;"">
                            <p style=""font-size:50px; font-weight:bold;""
                            >disgust</p>
                            <div style=""width:240px; margin: auto;"">
                                <img src=""images/shifted_maps/map02_managua_scaleRev_orientDef_000_darkshift.png"" style= ""width:200px""alt=""img"">
                            </div>
                        </div>","108","","0","","","","images/shifted_maps/map02_managua_scaleRev_orientDef_000_darkshift.png","disgust","1","02","02","managua","orientDef","scaleRev","000","darkshift","",""
"","","","","","html-slider-response","124","464856","0.0-120.0","octpmrlkux","3","96606","NaN","<div style=""width:500px;"">
                            <p style=""font-size:50px; font-weight:bold;""
                            >disgust</p>
                            <div style=""width:240px; margin: auto;"">
                                <img src=""images/shifted_maps/map02_turbo_scaleDef_orientDef_090_lightshift.png"" style= ""width:200px""alt=""img"">
                            </div>
                        </div>","-138","","0","","","","images/shifted_maps/map02_turbo_scaleDef_orientDef_090_lightshift.png","disgust","1","02","02","turbo","orientDef","scaleDef","090","lightshift","",""
"","","","","","html-slider-response","125","466964","0.0-121.0","octpmrlkux","3","96606","NaN","<div style=""width:500px;"">
                            <p style=""font-size:50px; font-weight:bold;""
                            >disgust</p>
                            <div style=""width:240px; margin: auto;"">
                                <img src=""images/shifted_maps/map10_PuRd_scaleRev_orientDef_000_lightshift.png"" style= ""width:200px""alt=""img"">
                            </div>
                        </div>","-176","","0","","","","images/shifted_maps/map10_PuRd_scaleRev_orientDef_000_lightshift.png","disgust","1","10","10","PuRd","orientDef","scaleRev","000","lightshift","",""
"","","","","","html-slider-response","126","469166","0.0-122.0","octpmrlkux","3","96606","NaN","<div style=""width:500px;"">
                            <p style=""font-size:50px; font-weight:bold;""
                            >disgust</p>
                            <div style=""width:240px; margin: auto;"">
                                <img src=""images/shifted_maps/map05_PiYG_scaleDef_orientDef_270_lightshift.png"" style= ""width:200px""alt=""img"">
                            </div>
                        </div>","-186","","0","","","","images/shifted_maps/map05_PiYG_scaleDef_orientDef_270_lightshift.png","disgust","1","05","05","PiYG","orientDef","scaleDef","270","lightshift","",""
"","","","","","html-slider-response","127","471578","0.0-123.0","octpmrlkux","3","96606","NaN","<div style=""width:500px;"">
                            <p style=""font-size:50px; font-weight:bold;""
                            >disgust</p>
                            <div style=""width:240px; margin: auto;"">
                                <img src=""images/shifted_maps/map13_BrBG_scaleDef_orientDef_090_lightshift.png"" style= ""width:200px""alt=""img"">
                            </div>
                        </div>","122","","0","","","","images/shifted_maps/map13_BrBG_scaleDef_orientDef_090_lightshift.png","disgust","1","13","13","BrBG","orientDef","scaleDef","090","lightshift","",""
"","","","","","html-slider-response","128","473412","0.0-124.0","octpmrlkux","3","96606","NaN","<div style=""width:500px;"">
                            <p style=""font-size:50px; font-weight:bold;""
                            >disgust</p>
                            <div style=""width:240px; margin: auto;"">
                                <img src=""images/shifted_maps/map12_RdGy_scaleDef_orientDef_090_darkshift.png"" style= ""width:200px""alt=""img"">
                            </div>
                        </div>","39","","0","","","","images/shifted_maps/map12_RdGy_scaleDef_orientDef_090_darkshift.png","disgust","1","12","12","RdGy","orientDef","scaleDef","090","darkshift","",""
"","","","","","html-slider-response","129","475909","0.0-125.0","octpmrlkux","3","96606","NaN","<div style=""width:500px;"">
                            <p style=""font-size:50px; font-weight:bold;""
                            >disgust</p>
                            <div style=""width:240px; margin: auto;"">
                                <img src=""images/shifted_maps/map02_turbo_scaleRev_orientDef_180_darkshift.png"" style= ""width:200px""alt=""img"">
                            </div>
                        </div>","-180","","0","","","","images/shifted_maps/map02_turbo_scaleRev_orientDef_180_darkshift.png","disgust","1","02","02","turbo","orientDef","scaleRev","180","darkshift","",""
"","","","","","html-slider-response","130","477978","0.0-126.0","octpmrlkux","3","96606","NaN","<div style=""width:500px;"">
                            <p style=""font-size:50px; font-weight:bold;""
                            >disgust</p>
                            <div style=""width:240px; margin: auto;"">
                                <img src=""images/shifted_maps/map26_PuOr_scaleDef_orientDef_090_lightshift.png"" style= ""width:200px""alt=""img"">
                            </div>
                        </div>","134","","0","","","","images/shifted_maps/map26_PuOr_scaleDef_orientDef_090_lightshift.png","disgust","1","26","26","PuOr","orientDef","scaleDef","090","lightshift","",""
"","","","","","html-slider-response","131","479957","0.0-127.0","octpmrlkux","3","96606","NaN","<div style=""width:500px;"">
                            <p style=""font-size:50px; font-weight:bold;""
                            >disgust</p>
                            <div style=""width:240px; margin: auto;"">
                                <img src=""images/shifted_maps/map07_Greys_scaleDef_orientDef_090_lightshift.png"" style= ""width:200px""alt=""img"">
                            </div>
                        </div>","22","","0","","","","images/shifted_maps/map07_Greys_scaleDef_orientDef_090_lightshift.png","disgust","1","07","07","Greys","orientDef","scaleDef","090","lightshift","",""
"","","","","","html-slider-response","132","482129","0.0-128.0","octpmrlkux","3","96606","NaN","<div style=""width:500px;"">
                            <p style=""font-size:50px; font-weight:bold;""
                            >disgust</p>
                            <div style=""width:240px; margin: auto;"">
                                <img src=""images/shifted_maps/map07_PuRd_scaleDef_orientDef_270_darkshift.png"" style= ""width:200px""alt=""img"">
                            </div>
                        </div>","-172","","0","","","","images/shifted_maps/map07_PuRd_scaleDef_orientDef_270_darkshift.png","disgust","1","07","07","PuRd","orientDef","scaleDef","270","darkshift","",""
"","","","","","html-slider-response","133","484010","0.0-129.0","octpmrlkux","3","96606","NaN","<div style=""width:500px;"">
                            <p style=""font-size:50px; font-weight:bold;""
                            >disgust</p>
                            <div style=""width:240px; margin: auto;"">
                                <img src=""images/shifted_maps/map15_cividis_scaleRev_orientDef_180_darkshift.png"" style= ""width:200px""alt=""img"">
                            </div>
                        </div>","6","","0","","","","images/shifted_maps/map15_cividis_scaleRev_orientDef_180_darkshift.png","disgust","1","15","15","cividis","orientDef","scaleRev","180","darkshift","",""
"","","","","","html-slider-response","134","486253","0.0-130.0","octpmrlkux","3","96606","NaN","<div style=""width:500px;"">
                            <p style=""font-size:50px; font-weight:bold;""
                            >disgust</p>
                            <div style=""width:240px; margin: auto;"">
                                <img src=""images/shifted_maps/map02_Reds_scaleDef_orientDef_270_lightshift.png"" style= ""width:200px""alt=""img"">
                            </div>
                        </div>","69","","0","","","","images/shifted_maps/map02_Reds_scaleDef_orientDef_270_lightshift.png","disgust","1","02","02","Reds","orientDef","scaleDef","270","lightshift","",""
"","","","","","html-slider-response","135","488292","0.0-131.0","octpmrlkux","3","96606","NaN","<div style=""width:500px;"">
                            <p style=""font-size:50px; font-weight:bold;""
                            >disgust</p>
                            <div style=""width:240px; margin: auto;"">
                                <img src=""images/shifted_maps/map07_Greys_scaleRev_orientDef_180_darkshift.png"" style= ""width:200px""alt=""img"">
                            </div>
                        </div>","18","","0","","","","images/shifted_maps/map07_Greys_scaleRev_orientDef_180_darkshift.png","disgust","1","07","07","Greys","orientDef","scaleRev","180","darkshift","",""
"","","","","","html-slider-response","136","490175","0.0-132.0","octpmrlkux","3","96606","NaN","<div style=""width:500px;"">
                            <p style=""font-size:50px; font-weight:bold;""
                            >disgust</p>
                            <div style=""width:240px; margin: auto;"">
                                <img src=""images/shifted_maps/map07_PuRd_scaleDef_orientDef_270_lightshift.png"" style= ""width:200px""alt=""img"">
                            </div>
                        </div>","-114","","0","","","","images/shifted_maps/map07_PuRd_scaleDef_orientDef_270_lightshift.png","disgust","1","07","07","PuRd","orientDef","scaleDef","270","lightshift","",""
"","","","","","html-slider-response","137","492850","0.0-133.0","octpmrlkux","3","96606","NaN","<div style=""width:500px;"">
                            <p style=""font-size:50px; font-weight:bold;""
                            >disgust</p>
                            <div style=""width:240px; margin: auto;"">
                                <img src=""images/shifted_maps/map15_magma_scaleRev_orientDef_000_darkshift.png"" style= ""width:200px""alt=""img"">
                            </div>
                        </div>","-82","","0","","","","images/shifted_maps/map15_magma_scaleRev_orientDef_000_darkshift.png","disgust","1","15","15","magma","orientDef","scaleRev","000","darkshift","",""
"","","","","","html-slider-response","138","495313","0.0-134.0","octpmrlkux","3","96606","NaN","<div style=""width:500px;"">
                            <p style=""font-size:50px; font-weight:bold;""
                            >disgust</p>
                            <div style=""width:240px; margin: auto;"">
                                <img src=""images/shifted_maps/map26_RdYlGn_scaleRev_orientDef_000_darkshift.png"" style= ""width:200px""alt=""img"">
                            </div>
                        </div>","66","","0","","","","images/shifted_maps/map26_RdYlGn_scaleRev_orientDef_000_darkshift.png","disgust","1","26","26","RdYlGn","orientDef","scaleRev","000","darkshift","",""
"","","","","","html-slider-response","139","497459","0.0-135.0","octpmrlkux","3","96606","NaN","<div style=""width:500px;"">
                            <p style=""font-size:50px; font-weight:bold;""
                            >disgust</p>
                            <div style=""width:240px; margin: auto;"">
                                <img src=""images/shifted_maps/map07_PiYG_scaleRev_orientDef_000_darkshift.png"" style= ""width:200px""alt=""img"">
                            </div>
                        </div>","-139","","0","","","","images/shifted_maps/map07_PiYG_scaleRev_orientDef_000_darkshift.png","disgust","1","07","07","PiYG","orientDef","scaleRev","000","darkshift","",""
"","","","","","html-slider-response","140","499342","0.0-136.0","octpmrlkux","3","96606","NaN","<div style=""width:500px;"">
                            <p style=""font-size:50px; font-weight:bold;""
                            >disgust</p>
                            <div style=""width:240px; margin: auto;"">
                                <img src=""images/shifted_maps/map23_PRGn_scaleDef_orientDef_090_darkshift.png"" style= ""width:200px""alt=""img"">
                            </div>
                        </div>","33","","0","","","","images/shifted_maps/map23_PRGn_scaleDef_orientDef_090_darkshift.png","disgust","1","23","23","PRGn","orientDef","scaleDef","090","darkshift","",""
"","","","","","html-button-response","141","501676","0.0-137.0","octpmrlkux","3","96606","1827","<p>You are doing great!<br></br> You are halway done with the current block. When you are ready to continue, click the 'Continue' button.</p>","0","","","","","","","","","","","","","","","","",""
"","","","","","html-slider-response","142","504446","0.0-138.0","octpmrlkux","3","96606","NaN","<div style=""width:500px;"">
                            <p style=""font-size:50px; font-weight:bold;""
                            >disgust</p>
                            <div style=""width:240px; margin: auto;"">
                                <img src=""images/shifted_maps/map12_RdGy_scaleRev_orientDef_180_darkshift.png"" style= ""width:200px""alt=""img"">
                            </div>
                        </div>","80","","0","","","","images/shifted_maps/map12_RdGy_scaleRev_orientDef_180_darkshift.png","disgust","1","12","12","RdGy","orientDef","scaleRev","180","darkshift","",""
"","","","","","html-slider-response","143","507863","0.0-139.0","octpmrlkux","3","96606","NaN","<div style=""width:500px;"">
                            <p style=""font-size:50px; font-weight:bold;""
                            >disgust</p>
                            <div style=""width:240px; margin: auto;"">
