"success","timeout","failed_images","failed_audio","failed_video","trial_type","trial_index","time_elapsed","internal_node_id","subject_id","condition_num","SONA_id","rt","stimulus","response","question_order","slider_start","practiceTrial","practiceTrialNum","correct","image_path","concept","repetition","map_id","map_num","scale_name","orientation_code","mapping_code","rotation_code","shift_code","ishihara_plate","correct_response"
"true","false","[]","[]","[]","preload","0","2186","0.0-0.0","r94oboy6jb","0","96955","","","","","","","","","","","","","","","","","","","",""
"","","","","","html-button-response","1","10217","0.0-1.0","r94oboy6jb","0","96955","8030","Welcome to our experiment!<p>At the bottom of this screen, you will see a button that says ""Begin Experiment"".<br>Please only click that button when you are ready to complete the 30 minute experiment in one sitting.</p><p> Once you click that button, it will not be possible to restart the experiment.","0","","","","","","","","","","","","","","","","",""
"true","","","","","fullscreen","2","12901","0.0-2.0","r94oboy6jb","0","96955","1680","","","","","","","","","","","","","","","","","","",""
"","","","","","survey-multi-select","3","39601","0.0-3.0","r94oboy6jb","0","96955","26697","","{""Consent"":[""<strong>I consent</strong>""]}","[0]","","","","","","","","","","","","","","","",""
"","","","","","html-button-response","4","44598","0.0-4.0","r94oboy6jb","0","96955","4995","Welcome! <p> This experiment involves two parts: demographic information, followed by the experimental task.<p> It will take about 30 minutes to complete both parts.","0","","","","","","","","","","","","","","","","",""
"","","","","","survey-text","5","75851","0.0-5.0","r94oboy6jb","0","96955","31246","","{""Age"":""18"",""Gender"":""female"",""Race/ethnicity"":""latino/hispanic"",""Languages"":""english and spanish""}","","","","","","","","","","","","","","","","",""
"","","","","","html-slider-response","6","134780","0.0-6.0","r94oboy6jb","0","96955","58927","<div style='text-align:left; font-size:20px; line-height:25px; width: 1000px;'>
                                During this experiment you will be asked to rate how much you associate maps with                    different concepts.<br> Below, you can see some examples of the maps you will be asked to rate. Above the maps
                    is the list of concepts.<br>You will be asked                    to rate how much you associate each map with each concept on a scale from 'not at all' to 'very much' like the
                    one below. <br><br>
                    Now, please look at the list of concepts and maps. For each concept, think about the map you associate 'very
                    much' with the concept.<br>                     When you see that map during the experiment, please rate it near the 'very much' endpoint of the
                    scale.<br>Now, please think about which map you associate 'not at all'                     with each concept. When you see that map during the experiment, please rate it near the 'not at all' endpoint
                    of the scale.<br>
                    Please use the full range of the scale. That is, if a map is somewhat associated with the concept, you would
                    click partway between the middle point and right side of the scale.                    You will be asked to rate each map for a given concept before moving on to the next concept.<br>Press the
                    'Continue' button for instructions on how to use the slider.                    <br>
                </div>

                <div style=""width: 500px; margin: 0 auto;"">
                    <!-- Centered text paragraphs -->
                    <div style=""text-align: center; width: 500px;"">
                        <p style=""font-size:25px; line-height:15px;"">
                            sad&nbsp;&nbsp;&nbsp;&nbsp;
                            fearful&nbsp;&nbsp;&nbsp;&nbsp;
                            angry&nbsp;&nbsp;&nbsp;&nbsp;
                            disgust&nbsp;&nbsp;&nbsp;&nbsp;
                            happy
                        </p>
                        <!-- <p style=""font-size:20px; line-height:15px;"">fearful</p>
                        <p style=""font-size:20px;line-height:15px;"">angry</p>
                        <p style=""font-size:20px;line-height:15px;"">disgust</p>
                        <p style=""font-size:20px;line-height:15px;"">happy</p> -->
                    </div>
            

                    <!-- Grid section -->
                   <div style=""display: flex; justify-content: center; padding-top: 15px;"">
                    <div style=""display: grid; grid-template-columns: repeat(10, 55px); grid-gap: 5px; width: auto;"">
                        <img src=""images/shifted_maps/map02_Reds_scaleDef_orientDef_000_lightshift.png"" alt=""map"" style=""width: 100%;""><img src=""images/shifted_maps/map13_cividis_scaleRev_orientDef_270_darkshift.png"" alt=""map"" style=""width: 100%;""><img src=""images/shifted_maps/map07_coolwarm_scaleDef_orientDef_180_darkshift.png"" alt=""map"" style=""width: 100%;""><img src=""images/shifted_maps/map26_BuGn_scaleRev_orientDef_090_darkshift.png"" alt=""map"" style=""width: 100%;""><img src=""images/shifted_maps/map05_PiYG_scaleDef_orientDef_000_darkshift.png"" alt=""map"" style=""width: 100%;""><img src=""images/shifted_maps/map13_magma_scaleDef_orientDef_000_lightshift.png"" alt=""map"" style=""width: 100%;""><img src=""images/shifted_maps/map05_Greys_scaleRev_orientDef_270_darkshift.png"" alt=""map"" style=""width: 100%;""><img src=""images/shifted_maps/map23_RdYlGn_scaleRev_orientDef_090_lightshift.png"" alt=""map"" style=""width: 100%;""><img src=""images/shifted_maps/map27_turbo_scaleDef_orientDef_180_lightshift.png"" alt=""map"" style=""width: 100%;""><img src=""images/shifted_maps/map02_PuBu_scaleRev_orientDef_270_darkshift.png"" alt=""map"" style=""width: 100%;""><img src=""images/shifted_maps/map07_PuRd_scaleRev_orientDef_090_lightshift.png"" alt=""map"" style=""width: 100%;""><img src=""images/shifted_maps/map23_RdYlGn_scaleDef_orientDef_000_darkshift.png"" alt=""map"" style=""width: 100%;""><img src=""images/shifted_maps/map27_turbo_scaleDef_orientDef_180_darkshift.png"" alt=""map"" style=""width: 100%;""><img src=""images/shifted_maps/map13_magma_scaleDef_orientDef_000_darkshift.png"" alt=""map"" style=""width: 100%;""><img src=""images/shifted_maps/map26_BuGn_scaleDef_orientDef_000_lightshift.png"" alt=""map"" style=""width: 100%;""><img src=""images/shifted_maps/map10_vanimo_scaleDef_orientDef_000_lightshift.png"" alt=""map"" style=""width: 100%;""><img src=""images/shifted_maps/map27_managua_scaleRev_orientDef_090_lightshift.png"" alt=""map"" style=""width: 100%;""><img src=""images/shifted_maps/map23_PuOr_scaleRev_orientDef_270_darkshift.png"" alt=""map"" style=""width: 100%;""><img src=""images/shifted_maps/map12_BuPu_scaleDef_orientDef_000_lightshift.png"" alt=""map"" style=""width: 100%;""><img src=""images/shifted_maps/map27_managua_scaleDef_orientDef_000_darkshift.png"" alt=""map"" style=""width: 100%;""><img src=""images/shifted_maps/map12_BrBG_scaleDef_orientDef_180_lightshift.png"" alt=""map"" style=""width: 100%;""><img src=""images/shifted_maps/map26_berlin_scaleRev_orientDef_270_lightshift.png"" alt=""map"" style=""width: 100%;""><img src=""images/shifted_maps/map15_YlOrBr_scaleRev_orientDef_090_lightshift.png"" alt=""map"" style=""width: 100%;""><img src=""images/shifted_maps/map05_PiYG_scaleDef_orientDef_000_lightshift.png"" alt=""map"" style=""width: 100%;""><img src=""images/shifted_maps/map12_BrBG_scaleRev_orientDef_270_darkshift.png"" alt=""map"" style=""width: 100%;""><img src=""images/shifted_maps/map10_RdGy_scaleDef_orientDef_180_lightshift.png"" alt=""map"" style=""width: 100%;""><img src=""images/shifted_maps/map07_coolwarm_scaleDef_orientDef_180_lightshift.png"" alt=""map"" style=""width: 100%;""><img src=""images/shifted_maps/map15_PRGn_scaleDef_orientDef_180_darkshift.png"" alt=""map"" style=""width: 100%;""><img src=""images/shifted_maps/map15_PRGn_scaleDef_orientDef_180_lightshift.png"" alt=""map"" style=""width: 100%;""><img src=""images/shifted_maps/map05_Greys_scaleDef_orientDef_180_lightshift.png"" alt=""map"" style=""width: 100%;""><img src=""images/shifted_maps/map10_vanimo_scaleDef_orientDef_000_darkshift.png"" alt=""map"" style=""width: 100%;""><img src=""images/shifted_maps/map07_PuRd_scaleDef_orientDef_000_darkshift.png"" alt=""map"" style=""width: 100%;""><img src=""images/shifted_maps/map12_BuPu_scaleRev_orientDef_090_darkshift.png"" alt=""map"" style=""width: 100%;""><img src=""images/shifted_maps/map13_cividis_scaleDef_orientDef_180_lightshift.png"" alt=""map"" style=""width: 100%;""><img src=""images/shifted_maps/map10_RdGy_scaleDef_orientDef_180_darkshift.png"" alt=""map"" style=""width: 100%;""><img src=""images/shifted_maps/map02_PuBu_scaleRev_orientDef_270_lightshift.png"" alt=""map"" style=""width: 100%;""><img src=""images/shifted_maps/map02_Reds_scaleRev_orientDef_090_darkshift.png"" alt=""map"" style=""width: 100%;""><img src=""images/shifted_maps/map23_PuOr_scaleDef_orientDef_180_lightshift.png"" alt=""map"" style=""width: 100%;""><img src=""images/shifted_maps/map15_YlOrBr_scaleRev_orientDef_090_darkshift.png"" alt=""map"" style=""width: 100%;""><img src=""images/shifted_maps/map26_berlin_scaleDef_orientDef_180_darkshift.png"" alt=""map"" style=""width: 100%;"">
                    </div>
                </div>

                    <!-- Clear floats -->
                    <div style=""clear: both;""></div>
                </div>
                            ","184","","0","true","","","","","","","","","","","","","",""
"","","","","","html-button-response","7","151864","0.0-7.0","r94oboy6jb","0","96955","17083","<div style=""width:800px;""><p style=""text-align:left"">To move the slider, click and drag your cursor to the location of the scale where you would like to make your rating and then let go. When you let go of the slider, your response will be recorded and the next trial will begin. <br>
                    We are interested in your initial impressions of each map for the given concept, so please go with your first intuition. <br>
                    Before you begin the experiment, there will be four training trials for you to practice using the scale. <br>
                     When you are ready to start the training trials, please click ""Continue"".</p><br></div>","0","","","","","","","","","","","","","","","","",""
"","","","","","html-slider-response","8","156425","0.0-8.0-0.0","r94oboy6jb","0","96955","NaN","<div style=""width:500px;"">
                                    <p style=""font-size:25px;"">Please move the slider all the way to the <br> right endpoint of the scale</p>

                                    </div>
                                </div>","200","","0","true","0","true","","","","","","","","","","","",""
"","","","","","html-button-response","9","158030","0.0-8.0-1.0","r94oboy6jb","0","96955","1103","<p align='center'><b>Good job!</b> Click on 'Continue' to proceed.</p>","0","","","","","","","","","","","","","","","","",""
"","","","","","html-slider-response","10","160608","0.0-9.0-0.0","r94oboy6jb","0","96955","NaN","<div style=""width:500px;"">
                                    <p style=""font-size:25px;"">Please move the slider all the way to the <br> left endpoint of the scale</p>

                                    </div>
                                </div>","-200","","0","true","1","true","","","","","","","","","","","",""
"","","","","","html-button-response","11","161946","0.0-9.0-1.0","r94oboy6jb","0","96955","834","<p align='center'><b>Good job!</b> Click on 'Continue' to proceed.</p>","0","","","","","","","","","","","","","","","","",""
"","","","","","html-slider-response","12","168241","0.0-10.0-0.0","r94oboy6jb","0","96955","NaN","<div style=""width:500px;"">
                                    <p style=""font-size:25px;"">Please move the slider halfway between the center and right endpoint of the scale</p>

                                    </div>
                                </div>","102","","0","true","2","true","","","","","","","","","","","",""
"","","","","","html-button-response","13","170247","0.0-10.0-1.0","r94oboy6jb","0","96955","1503","<p align='center'><b>Good job!</b> Click on 'Continue' to proceed.</p>","0","","","","","","","","","","","","","","","","",""
"","","","","","html-slider-response","14","173642","0.0-11.0-0.0","r94oboy6jb","0","96955","NaN","<div style=""width:500px;"">
                                    <p style=""font-size:25px;"">Please move the slider halfway between the center and left endpoint of the scale</p>

                                    </div>
                                </div>","-106","","0","true","3","true","","","","","","","","","","","",""
"","","","","","html-button-response","15","174614","0.0-11.0-1.0","r94oboy6jb","0","96955","469","<p align='center'><b>Good job!</b> Click on 'Continue' to proceed.</p>","0","","","","","","","","","","","","","","","","",""
"","","","","","html-button-response","16","176197","0.0-12.0","r94oboy6jb","0","96955","1582","<p>Great job! You've completed the practice trials. Now you will begin the main task.</p>","0","","","","","","","","","","","","","","","","",""
"","","","","","html-button-response","17","182081","0.0-13.0","r94oboy6jb","0","96955","5882","<p>In this block of trials, you will be asked to rate how much you associate each map with:</p > <p style = 'font-size:150%; font-weight: bold'>sad</p><br></br>","0","","","","","","","","","","","","","","","","",""
"","","","","","html-slider-response","18","187541","0.0-14.0","r94oboy6jb","0","96955","NaN","<div style=""width:500px;"">
                            <p style=""font-size:50px; font-weight:bold;""
                            >sad</p>
                            <div style=""width:240px; margin: auto;"">
                                <img src=""images/shifted_maps/map10_RdGy_scaleRev_orientDef_270_darkshift.png"" style= ""width:200px""alt=""img"">
                            </div>
                        </div>","-58","","0","","","","images/shifted_maps/map10_RdGy_scaleRev_orientDef_270_darkshift.png","sad","1","10","10","RdGy","orientDef","scaleRev","270","darkshift","",""
"","","","","","html-slider-response","19","191375","0.0-15.0","r94oboy6jb","0","96955","NaN","<div style=""width:500px;"">
                            <p style=""font-size:50px; font-weight:bold;""
                            >sad</p>
                            <div style=""width:240px; margin: auto;"">
                                <img src=""images/shifted_maps/map12_BuPu_scaleRev_orientDef_090_darkshift.png"" style= ""width:200px""alt=""img"">
                            </div>
                        </div>","-11","","0","","","","images/shifted_maps/map12_BuPu_scaleRev_orientDef_090_darkshift.png","sad","1","12","12","BuPu","orientDef","scaleRev","090","darkshift","",""
"","","","","","html-slider-response","20","194074","0.0-16.0","r94oboy6jb","0","96955","NaN","<div style=""width:500px;"">
                            <p style=""font-size:50px; font-weight:bold;""
                            >sad</p>
                            <div style=""width:240px; margin: auto;"">
                                <img src=""images/shifted_maps/map10_RdGy_scaleDef_orientDef_180_darkshift.png"" style= ""width:200px""alt=""img"">
                            </div>
                        </div>","65","","0","","","","images/shifted_maps/map10_RdGy_scaleDef_orientDef_180_darkshift.png","sad","1","10","10","RdGy","orientDef","scaleDef","180","darkshift","",""
"","","","","","html-slider-response","21","197125","0.0-17.0","r94oboy6jb","0","96955","NaN","<div style=""width:500px;"">
                            <p style=""font-size:50px; font-weight:bold;""
                            >sad</p>
                            <div style=""width:240px; margin: auto;"">
                                <img src=""images/shifted_maps/map26_BuGn_scaleDef_orientDef_000_lightshift.png"" style= ""width:200px""alt=""img"">
                            </div>
                        </div>","-134","","0","","","","images/shifted_maps/map26_BuGn_scaleDef_orientDef_000_lightshift.png","sad","1","26","26","BuGn","orientDef","scaleDef","000","lightshift","",""
"","","","","","html-slider-response","22","200391","0.0-18.0","r94oboy6jb","0","96955","NaN","<div style=""width:500px;"">
                            <p style=""font-size:50px; font-weight:bold;""
                            >sad</p>
                            <div style=""width:240px; margin: auto;"">
                                <img src=""images/shifted_maps/map13_magma_scaleDef_orientDef_000_lightshift.png"" style= ""width:200px""alt=""img"">
                            </div>
                        </div>","137","","0","","","","images/shifted_maps/map13_magma_scaleDef_orientDef_000_lightshift.png","sad","1","13","13","magma","orientDef","scaleDef","000","lightshift","",""
"","","","","","html-slider-response","23","203442","0.0-19.0","r94oboy6jb","0","96955","NaN","<div style=""width:500px;"">
                            <p style=""font-size:50px; font-weight:bold;""
                            >sad</p>
                            <div style=""width:240px; margin: auto;"">
                                <img src=""images/shifted_maps/map23_RdYlGn_scaleRev_orientDef_090_darkshift.png"" style= ""width:200px""alt=""img"">
                            </div>
                        </div>","-29","","0","","","","images/shifted_maps/map23_RdYlGn_scaleRev_orientDef_090_darkshift.png","sad","1","23","23","RdYlGn","orientDef","scaleRev","090","darkshift","",""
"","","","","","html-slider-response","24","205691","0.0-20.0","r94oboy6jb","0","96955","NaN","<div style=""width:500px;"">
                            <p style=""font-size:50px; font-weight:bold;""
                            >sad</p>
                            <div style=""width:240px; margin: auto;"">
                                <img src=""images/shifted_maps/map13_cividis_scaleRev_orientDef_270_darkshift.png"" style= ""width:200px""alt=""img"">
                            </div>
                        </div>","135","","0","","","","images/shifted_maps/map13_cividis_scaleRev_orientDef_270_darkshift.png","sad","1","13","13","cividis","orientDef","scaleRev","270","darkshift","",""
"","","","","","html-slider-response","25","209076","0.0-21.0","r94oboy6jb","0","96955","NaN","<div style=""width:500px;"">
                            <p style=""font-size:50px; font-weight:bold;""
                            >sad</p>
                            <div style=""width:240px; margin: auto;"">
                                <img src=""images/shifted_maps/map07_coolwarm_scaleRev_orientDef_270_darkshift.png"" style= ""width:200px""alt=""img"">
                            </div>
                        </div>","-162","","0","","","","images/shifted_maps/map07_coolwarm_scaleRev_orientDef_270_darkshift.png","sad","1","07","07","coolwarm","orientDef","scaleRev","270","darkshift","",""
"","","","","","html-slider-response","26","212942","0.0-22.0","r94oboy6jb","0","96955","NaN","<div style=""width:500px;"">
                            <p style=""font-size:50px; font-weight:bold;""
                            >sad</p>
                            <div style=""width:240px; margin: auto;"">
                                <img src=""images/shifted_maps/map26_berlin_scaleDef_orientDef_180_darkshift.png"" style= ""width:200px""alt=""img"">
                            </div>
                        </div>","-30","","0","","","","images/shifted_maps/map26_berlin_scaleDef_orientDef_180_darkshift.png","sad","1","26","26","berlin","orientDef","scaleDef","180","darkshift","",""
"","","","","","html-slider-response","27","216226","0.0-23.0","r94oboy6jb","0","96955","NaN","<div style=""width:500px;"">
                            <p style=""font-size:50px; font-weight:bold;""
                            >sad</p>
                            <div style=""width:240px; margin: auto;"">
                                <img src=""images/shifted_maps/map10_RdGy_scaleRev_orientDef_270_lightshift.png"" style= ""width:200px""alt=""img"">
                            </div>
                        </div>","118","","0","","","","images/shifted_maps/map10_RdGy_scaleRev_orientDef_270_lightshift.png","sad","1","10","10","RdGy","orientDef","scaleRev","270","lightshift","",""
"","","","","","html-slider-response","28","220575","0.0-24.0","r94oboy6jb","0","96955","NaN","<div style=""width:500px;"">
                            <p style=""font-size:50px; font-weight:bold;""
                            >sad</p>
                            <div style=""width:240px; margin: auto;"">
                                <img src=""images/shifted_maps/map23_PuOr_scaleRev_orientDef_270_darkshift.png"" style= ""width:200px""alt=""img"">
                            </div>
                        </div>","-58","","0","","","","images/shifted_maps/map23_PuOr_scaleRev_orientDef_270_darkshift.png","sad","1","23","23","PuOr","orientDef","scaleRev","270","darkshift","",""
"","","","","","html-slider-response","29","224594","0.0-25.0","r94oboy6jb","0","96955","NaN","<div style=""width:500px;"">
                            <p style=""font-size:50px; font-weight:bold;""
                            >sad</p>
                            <div style=""width:240px; margin: auto;"">
                                <img src=""images/shifted_maps/map02_PuBu_scaleDef_orientDef_180_darkshift.png"" style= ""width:200px""alt=""img"">
                            </div>
                        </div>","-123","","0","","","","images/shifted_maps/map02_PuBu_scaleDef_orientDef_180_darkshift.png","sad","1","02","02","PuBu","orientDef","scaleDef","180","darkshift","",""
"","","","","","html-slider-response","30","228491","0.0-26.0","r94oboy6jb","0","96955","NaN","<div style=""width:500px;"">
                            <p style=""font-size:50px; font-weight:bold;""
                            >sad</p>
                            <div style=""width:240px; margin: auto;"">
                                <img src=""images/shifted_maps/map05_PiYG_scaleDef_orientDef_000_lightshift.png"" style= ""width:200px""alt=""img"">
                            </div>
                        </div>","-194","","0","","","","images/shifted_maps/map05_PiYG_scaleDef_orientDef_000_lightshift.png","sad","1","05","05","PiYG","orientDef","scaleDef","000","lightshift","",""
"","","","","","html-slider-response","31","231407","0.0-27.0","r94oboy6jb","0","96955","NaN","<div style=""width:500px;"">
                            <p style=""font-size:50px; font-weight:bold;""
                            >sad</p>
                            <div style=""width:240px; margin: auto;"">
                                <img src=""images/shifted_maps/map23_PuOr_scaleRev_orientDef_270_lightshift.png"" style= ""width:200px""alt=""img"">
                            </div>
                        </div>","21","","0","","","","images/shifted_maps/map23_PuOr_scaleRev_orientDef_270_lightshift.png","sad","1","23","23","PuOr","orientDef","scaleRev","270","lightshift","",""
"","","","","","html-slider-response","32","234158","0.0-28.0","r94oboy6jb","0","96955","NaN","<div style=""width:500px;"">
                            <p style=""font-size:50px; font-weight:bold;""
                            >sad</p>
                            <div style=""width:240px; margin: auto;"">
                                <img src=""images/shifted_maps/map10_vanimo_scaleRev_orientDef_090_darkshift.png"" style= ""width:200px""alt=""img"">
                            </div>
                        </div>","-24","","0","","","","images/shifted_maps/map10_vanimo_scaleRev_orientDef_090_darkshift.png","sad","1","10","10","vanimo","orientDef","scaleRev","090","darkshift","",""
"","","","","","html-slider-response","33","236824","0.0-29.0","r94oboy6jb","0","96955","NaN","<div style=""width:500px;"">
                            <p style=""font-size:50px; font-weight:bold;""
                            >sad</p>
                            <div style=""width:240px; margin: auto;"">
                                <img src=""images/shifted_maps/map10_vanimo_scaleDef_orientDef_000_lightshift.png"" style= ""width:200px""alt=""img"">
                            </div>
                        </div>","-55","","0","","","","images/shifted_maps/map10_vanimo_scaleDef_orientDef_000_lightshift.png","sad","1","10","10","vanimo","orientDef","scaleDef","000","lightshift","",""
"","","","","","html-slider-response","34","239174","0.0-30.0","r94oboy6jb","0","96955","NaN","<div style=""width:500px;"">
                            <p style=""font-size:50px; font-weight:bold;""
                            >sad</p>
                            <div style=""width:240px; margin: auto;"">
                                <img src=""images/shifted_maps/map05_PiYG_scaleRev_orientDef_090_darkshift.png"" style= ""width:200px""alt=""img"">
                            </div>
                        </div>","-66","","0","","","","images/shifted_maps/map05_PiYG_scaleRev_orientDef_090_darkshift.png","sad","1","05","05","PiYG","orientDef","scaleRev","090","darkshift","",""
"","","","","","html-slider-response","35","243341","0.0-31.0","r94oboy6jb","0","96955","NaN","<div style=""width:500px;"">
                            <p style=""font-size:50px; font-weight:bold;""
                            >sad</p>
                            <div style=""width:240px; margin: auto;"">
                                <img src=""images/shifted_maps/map05_PiYG_scaleRev_orientDef_090_lightshift.png"" style= ""width:200px""alt=""img"">
                            </div>
                        </div>","-98","","0","","","","images/shifted_maps/map05_PiYG_scaleRev_orientDef_090_lightshift.png","sad","1","05","05","PiYG","orientDef","scaleRev","090","lightshift","",""
"","","","","","html-slider-response","36","247141","0.0-32.0","r94oboy6jb","0","96955","NaN","<div style=""width:500px;"">
                            <p style=""font-size:50px; font-weight:bold;""
                            >sad</p>
                            <div style=""width:240px; margin: auto;"">
                                <img src=""images/shifted_maps/map10_vanimo_scaleDef_orientDef_000_darkshift.png"" style= ""width:200px""alt=""img"">
                            </div>
                        </div>","-26","","0","","","","images/shifted_maps/map10_vanimo_scaleDef_orientDef_000_darkshift.png","sad","1","10","10","vanimo","orientDef","scaleDef","000","darkshift","",""
"","","","","","html-slider-response","37","250024","0.0-33.0","r94oboy6jb","0","96955","NaN","<div style=""width:500px;"">
                            <p style=""font-size:50px; font-weight:bold;""
                            >sad</p>
                            <div style=""width:240px; margin: auto;"">
                                <img src=""images/shifted_maps/map26_BuGn_scaleRev_orientDef_090_darkshift.png"" style= ""width:200px""alt=""img"">
                            </div>
                        </div>","-91","","0","","","","images/shifted_maps/map26_BuGn_scaleRev_orientDef_090_darkshift.png","sad","1","26","26","BuGn","orientDef","scaleRev","090","darkshift","",""
"","","","","","html-slider-response","38","252741","0.0-34.0","r94oboy6jb","0","96955","NaN","<div style=""width:500px;"">
                            <p style=""font-size:50px; font-weight:bold;""
                            >sad</p>
                            <div style=""width:240px; margin: auto;"">
                                <img src=""images/shifted_maps/map07_coolwarm_scaleRev_orientDef_270_lightshift.png"" style= ""width:200px""alt=""img"">
                            </div>
                        </div>","-176","","0","","","","images/shifted_maps/map07_coolwarm_scaleRev_orientDef_270_lightshift.png","sad","1","07","07","coolwarm","orientDef","scaleRev","270","lightshift","",""
"","","","","","html-slider-response","39","254725","0.0-35.0","r94oboy6jb","0","96955","NaN","<div style=""width:500px;"">
                            <p style=""font-size:50px; font-weight:bold;""
                            >sad</p>
                            <div style=""width:240px; margin: auto;"">
                                <img src=""images/shifted_maps/map07_PuRd_scaleRev_orientDef_090_darkshift.png"" style= ""width:200px""alt=""img"">
                            </div>
                        </div>","-174","","0","","","","images/shifted_maps/map07_PuRd_scaleRev_orientDef_090_darkshift.png","sad","1","07","07","PuRd","orientDef","scaleRev","090","darkshift","",""
"","","","","","html-slider-response","40","257274","0.0-36.0","r94oboy6jb","0","96955","NaN","<div style=""width:500px;"">
                            <p style=""font-size:50px; font-weight:bold;""
                            >sad</p>
                            <div style=""width:240px; margin: auto;"">
                                <img src=""images/shifted_maps/map12_BrBG_scaleDef_orientDef_180_lightshift.png"" style= ""width:200px""alt=""img"">
                            </div>
                        </div>","59","","0","","","","images/shifted_maps/map12_BrBG_scaleDef_orientDef_180_lightshift.png","sad","1","12","12","BrBG","orientDef","scaleDef","180","lightshift","",""
"","","","","","html-slider-response","41","259157","0.0-37.0","r94oboy6jb","0","96955","NaN","<div style=""width:500px;"">
                            <p style=""font-size:50px; font-weight:bold;""
                            >sad</p>
                            <div style=""width:240px; margin: auto;"">
                                <img src=""images/shifted_maps/map05_Greys_scaleRev_orientDef_270_darkshift.png"" style= ""width:200px""alt=""img"">
                            </div>
                        </div>","-33","","0","","","","images/shifted_maps/map05_Greys_scaleRev_orientDef_270_darkshift.png","sad","1","05","05","Greys","orientDef","scaleRev","270","darkshift","",""
"","","","","","html-slider-response","42","261307","0.0-38.0","r94oboy6jb","0","96955","NaN","<div style=""width:500px;"">
                            <p style=""font-size:50px; font-weight:bold;""
                            >sad</p>
                            <div style=""width:240px; margin: auto;"">
                                <img src=""images/shifted_maps/map02_PuBu_scaleRev_orientDef_270_lightshift.png"" style= ""width:200px""alt=""img"">
                            </div>
                        </div>","50","","0","","","","images/shifted_maps/map02_PuBu_scaleRev_orientDef_270_lightshift.png","sad","1","02","02","PuBu","orientDef","scaleRev","270","lightshift","",""
"","","","","","html-slider-response","43","263257","0.0-39.0","r94oboy6jb","0","96955","NaN","<div style=""width:500px;"">
                            <p style=""font-size:50px; font-weight:bold;""
                            >sad</p>
                            <div style=""width:240px; margin: auto;"">
                                <img src=""images/shifted_maps/map23_RdYlGn_scaleDef_orientDef_000_lightshift.png"" style= ""width:200px""alt=""img"">
                            </div>
                        </div>","-11","","0","","","","images/shifted_maps/map23_RdYlGn_scaleDef_orientDef_000_lightshift.png","sad","1","23","23","RdYlGn","orientDef","scaleDef","000","lightshift","",""
"","","","","","html-slider-response","44","265391","0.0-40.0","r94oboy6jb","0","96955","NaN","<div style=""width:500px;"">
                            <p style=""font-size:50px; font-weight:bold;""
                            >sad</p>
                            <div style=""width:240px; margin: auto;"">
                                <img src=""images/shifted_maps/map13_magma_scaleDef_orientDef_000_darkshift.png"" style= ""width:200px""alt=""img"">
                            </div>
                        </div>","86","","0","","","","images/shifted_maps/map13_magma_scaleDef_orientDef_000_darkshift.png","sad","1","13","13","magma","orientDef","scaleDef","000","darkshift","",""
"","","","","","html-slider-response","45","267740","0.0-41.0","r94oboy6jb","0","96955","NaN","<div style=""width:500px;"">
                            <p style=""font-size:50px; font-weight:bold;""
                            >sad</p>
                            <div style=""width:240px; margin: auto;"">
                                <img src=""images/shifted_maps/map27_turbo_scaleDef_orientDef_180_lightshift.png"" style= ""width:200px""alt=""img"">
                            </div>
                        </div>","-91","","0","","","","images/shifted_maps/map27_turbo_scaleDef_orientDef_180_lightshift.png","sad","1","27","27","turbo","orientDef","scaleDef","180","lightshift","",""
"","","","","","html-slider-response","46","270291","0.0-42.0","r94oboy6jb","0","96955","NaN","<div style=""width:500px;"">
                            <p style=""font-size:50px; font-weight:bold;""
                            >sad</p>
                            <div style=""width:240px; margin: auto;"">
                                <img src=""images/shifted_maps/map27_turbo_scaleRev_orientDef_270_darkshift.png"" style= ""width:200px""alt=""img"">
                            </div>
                        </div>","-69","","0","","","","images/shifted_maps/map27_turbo_scaleRev_orientDef_270_darkshift.png","sad","1","27","27","turbo","orientDef","scaleRev","270","darkshift","",""
"","","","","","html-slider-response","47","272491","0.0-43.0","r94oboy6jb","0","96955","NaN","<div style=""width:500px;"">
                            <p style=""font-size:50px; font-weight:bold;""
                            >sad</p>
                            <div style=""width:240px; margin: auto;"">
                                <img src=""images/shifted_maps/map12_BuPu_scaleDef_orientDef_000_darkshift.png"" style= ""width:200px""alt=""img"">
                            </div>
                        </div>","105","","0","","","","images/shifted_maps/map12_BuPu_scaleDef_orientDef_000_darkshift.png","sad","1","12","12","BuPu","orientDef","scaleDef","000","darkshift","",""
"","","","","","html-slider-response","48","275591","0.0-44.0","r94oboy6jb","0","96955","NaN","<div style=""width:500px;"">
                            <p style=""font-size:50px; font-weight:bold;""
                            >sad</p>
                            <div style=""width:240px; margin: auto;"">
                                <img src=""images/shifted_maps/map10_vanimo_scaleRev_orientDef_090_lightshift.png"" style= ""width:200px""alt=""img"">
                            </div>
                        </div>","-64","","0","","","","images/shifted_maps/map10_vanimo_scaleRev_orientDef_090_lightshift.png","sad","1","10","10","vanimo","orientDef","scaleRev","090","lightshift","",""
"","","","","","html-slider-response","49","278141","0.0-45.0","r94oboy6jb","0","96955","NaN","<div style=""width:500px;"">
                            <p style=""font-size:50px; font-weight:bold;""
                            >sad</p>
                            <div style=""width:240px; margin: auto;"">
                                <img src=""images/shifted_maps/map02_Reds_scaleRev_orientDef_090_darkshift.png"" style= ""width:200px""alt=""img"">
                            </div>
                        </div>","-114","","0","","","","images/shifted_maps/map02_Reds_scaleRev_orientDef_090_darkshift.png","sad","1","02","02","Reds","orientDef","scaleRev","090","darkshift","",""
"","","","","","html-slider-response","50","281040","0.0-46.0","r94oboy6jb","0","96955","NaN","<div style=""width:500px;"">
                            <p style=""font-size:50px; font-weight:bold;""
                            >sad</p>
                            <div style=""width:240px; margin: auto;"">
                                <img src=""images/shifted_maps/map12_BuPu_scaleRev_orientDef_090_lightshift.png"" style= ""width:200px""alt=""img"">
                            </div>
                        </div>","21","","0","","","","images/shifted_maps/map12_BuPu_scaleRev_orientDef_090_lightshift.png","sad","1","12","12","BuPu","orientDef","scaleRev","090","lightshift","",""
"","","","","","html-slider-response","51","283357","0.0-47.0","r94oboy6jb","0","96955","NaN","<div style=""width:500px;"">
                            <p style=""font-size:50px; font-weight:bold;""
                            >sad</p>
                            <div style=""width:240px; margin: auto;"">
                                <img src=""images/shifted_maps/map26_berlin_scaleRev_orientDef_270_lightshift.png"" style= ""width:200px""alt=""img"">
                            </div>
                        </div>","66","","0","","","","images/shifted_maps/map26_berlin_scaleRev_orientDef_270_lightshift.png","sad","1","26","26","berlin","orientDef","scaleRev","270","lightshift","",""
"","","","","","html-slider-response","52","288473","0.0-48.0","r94oboy6jb","0","96955","NaN","<div style=""width:500px;"">
                            <p style=""font-size:50px; font-weight:bold;""
                            >sad</p>
                            <div style=""width:240px; margin: auto;"">
                                <img src=""images/shifted_maps/map27_managua_scaleDef_orientDef_000_lightshift.png"" style= ""width:200px""alt=""img"">
                            </div>
                        </div>","-47","","0","","","","images/shifted_maps/map27_managua_scaleDef_orientDef_000_lightshift.png","sad","1","27","27","managua","orientDef","scaleDef","000","lightshift","",""
"","","","","","html-slider-response","53","290291","0.0-49.0","r94oboy6jb","0","96955","NaN","<div style=""width:500px;"">
                            <p style=""font-size:50px; font-weight:bold;""
                            >sad</p>
                            <div style=""width:240px; margin: auto;"">
                                <img src=""images/shifted_maps/map05_Greys_scaleDef_orientDef_180_lightshift.png"" style= ""width:200px""alt=""img"">
                            </div>
                        </div>","67","","0","","","","images/shifted_maps/map05_Greys_scaleDef_orientDef_180_lightshift.png","sad","1","05","05","Greys","orientDef","scaleDef","180","lightshift","",""
"","","","","","html-slider-response","54","304056","0.0-50.0","r94oboy6jb","0","96955","NaN","<div style=""width:500px;"">
                            <p style=""font-size:50px; font-weight:bold;""
                            >sad</p>
                            <div style=""width:240px; margin: auto;"">
                                <img src=""images/shifted_maps/map13_cividis_scaleRev_orientDef_270_lightshift.png"" style= ""width:200px""alt=""img"">
                            </div>
                        </div>","-55","","0","","","","images/shifted_maps/map13_cividis_scaleRev_orientDef_270_lightshift.png","sad","1","13","13","cividis","orientDef","scaleRev","270","lightshift","",""
"","","","","","html-slider-response","55","306956","0.0-51.0","r94oboy6jb","0","96955","NaN","<div style=""width:500px;"">
                            <p style=""font-size:50px; font-weight:bold;""
                            >sad</p>
                            <div style=""width:240px; margin: auto;"">
                                <img src=""images/shifted_maps/map12_BrBG_scaleRev_orientDef_270_lightshift.png"" style= ""width:200px""alt=""img"">
                            </div>
                        </div>","65","","0","","","","images/shifted_maps/map12_BrBG_scaleRev_orientDef_270_lightshift.png","sad","1","12","12","BrBG","orientDef","scaleRev","270","lightshift","",""
"","","","","","html-slider-response","56","308640","0.0-52.0","r94oboy6jb","0","96955","NaN","<div style=""width:500px;"">
                            <p style=""font-size:50px; font-weight:bold;""
                            >sad</p>
                            <div style=""width:240px; margin: auto;"">
                                <img src=""images/shifted_maps/map07_PuRd_scaleDef_orientDef_000_lightshift.png"" style= ""width:200px""alt=""img"">
                            </div>
                        </div>","-133","","0","","","","images/shifted_maps/map07_PuRd_scaleDef_orientDef_000_lightshift.png","sad","1","07","07","PuRd","orientDef","scaleDef","000","lightshift","",""
"","","","","","html-slider-response","57","310489","0.0-53.0","r94oboy6jb","0","96955","NaN","<div style=""width:500px;"">
                            <p style=""font-size:50px; font-weight:bold;""
                            >sad</p>
                            <div style=""width:240px; margin: auto;"">
                                <img src=""images/shifted_maps/map07_PuRd_scaleDef_orientDef_000_darkshift.png"" style= ""width:200px""alt=""img"">
                            </div>
                        </div>","-167","","0","","","","images/shifted_maps/map07_PuRd_scaleDef_orientDef_000_darkshift.png","sad","1","07","07","PuRd","orientDef","scaleDef","000","darkshift","",""
"","","","","","html-button-response","58","314746","0.0-54.0","r94oboy6jb","0","96955","3754","<p>You are doing great!<br></br> You are halway done with the current block. When you are ready to continue, click the 'Continue' button.</p>","0","","","","","","","","","","","","","","","","",""
"","","","","","html-slider-response","59","317473","0.0-55.0","r94oboy6jb","0","96955","NaN","<div style=""width:500px;"">
                            <p style=""font-size:50px; font-weight:bold;""
                            >sad</p>
                            <div style=""width:240px; margin: auto;"">
                                <img src=""images/shifted_maps/map23_RdYlGn_scaleRev_orientDef_090_lightshift.png"" style= ""width:200px""alt=""img"">
                            </div>
                        </div>","-57","","0","","","","images/shifted_maps/map23_RdYlGn_scaleRev_orientDef_090_lightshift.png","sad","1","23","23","RdYlGn","orientDef","scaleRev","090","lightshift","",""
"","","","","","html-slider-response","60","319673","0.0-56.0","r94oboy6jb","0","96955","NaN","<div style=""width:500px;"">
                            <p style=""font-size:50px; font-weight:bold;""
                            >sad</p>
                            <div style=""width:240px; margin: auto;"">
                                <img src=""images/shifted_maps/map27_managua_scaleRev_orientDef_090_darkshift.png"" style= ""width:200px""alt=""img"">
                            </div>
                        </div>","38","","0","","","","images/shifted_maps/map27_managua_scaleRev_orientDef_090_darkshift.png","sad","1","27","27","managua","orientDef","scaleRev","090","darkshift","",""
"","","","","","html-slider-response","61","321257","0.0-57.0","r94oboy6jb","0","96955","NaN","<div style=""width:500px;"">
                            <p style=""font-size:50px; font-weight:bold;""
                            >sad</p>
                            <div style=""width:240px; margin: auto;"">
                                <img src=""images/shifted_maps/map26_berlin_scaleDef_orientDef_180_lightshift.png"" style= ""width:200px""alt=""img"">
                            </div>
                        </div>","78","","0","","","","images/shifted_maps/map26_berlin_scaleDef_orientDef_180_lightshift.png","sad","1","26","26","berlin","orientDef","scaleDef","180","lightshift","",""
"","","","","","html-slider-response","62","323122","0.0-58.0","r94oboy6jb","0","96955","NaN","<div style=""width:500px;"">
                            <p style=""font-size:50px; font-weight:bold;""
                            >sad</p>
                            <div style=""width:240px; margin: auto;"">
                                <img src=""images/shifted_maps/map02_PuBu_scaleRev_orientDef_270_darkshift.png"" style= ""width:200px""alt=""img"">
                            </div>
                        </div>","112","","0","","","","images/shifted_maps/map02_PuBu_scaleRev_orientDef_270_darkshift.png","sad","1","02","02","PuBu","orientDef","scaleRev","270","darkshift","",""
"","","","","","html-slider-response","63","324907","0.0-59.0","r94oboy6jb","0","96955","NaN","<div style=""width:500px;"">
                            <p style=""font-size:50px; font-weight:bold;""
                            >sad</p>
                            <div style=""width:240px; margin: auto;"">
                                <img src=""images/shifted_maps/map27_turbo_scaleRev_orientDef_270_lightshift.png"" style= ""width:200px""alt=""img"">
                            </div>
                        </div>","-34","","0","","","","images/shifted_maps/map27_turbo_scaleRev_orientDef_270_lightshift.png","sad","1","27","27","turbo","orientDef","scaleRev","270","lightshift","",""
"","","","","","html-slider-response","64","327207","0.0-60.0","r94oboy6jb","0","96955","NaN","<div style=""width:500px;"">
                            <p style=""font-size:50px; font-weight:bold;""
                            >sad</p>
                            <div style=""width:240px; margin: auto;"">
                                <img src=""images/shifted_maps/map13_cividis_scaleDef_orientDef_180_darkshift.png"" style= ""width:200px""alt=""img"">
                            </div>
                        </div>","49","","0","","","","images/shifted_maps/map13_cividis_scaleDef_orientDef_180_darkshift.png","sad","1","13","13","cividis","orientDef","scaleDef","180","darkshift","",""
"","","","","","html-slider-response","65","328855","0.0-61.0","r94oboy6jb","0","96955","NaN","<div style=""width:500px;"">
                            <p style=""font-size:50px; font-weight:bold;""
                            >sad</p>
                            <div style=""width:240px; margin: auto;"">
                                <img src=""images/shifted_maps/map15_YlOrBr_scaleDef_orientDef_000_darkshift.png"" style= ""width:200px""alt=""img"">
                            </div>
                        </div>","66","","0","","","","images/shifted_maps/map15_YlOrBr_scaleDef_orientDef_000_darkshift.png","sad","1","15","15","YlOrBr","orientDef","scaleDef","000","darkshift","",""
"","","","","","html-slider-response","66","331358","0.0-62.0","r94oboy6jb","0","96955","NaN","<div style=""width:500px;"">
                            <p style=""font-size:50px; font-weight:bold;""
                            >sad</p>
                            <div style=""width:240px; margin: auto;"">
                                <img src=""images/shifted_maps/map27_managua_scaleDef_orientDef_000_darkshift.png"" style= ""width:200px""alt=""img"">
                            </div>
                        </div>","-15","","0","","","","images/shifted_maps/map27_managua_scaleDef_orientDef_000_darkshift.png","sad","1","27","27","managua","orientDef","scaleDef","000","darkshift","",""
"","","","","","html-slider-response","67","333906","0.0-63.0","r94oboy6jb","0","96955","NaN","<div style=""width:500px;"">
                            <p style=""font-size:50px; font-weight:bold;""
                            >sad</p>
                            <div style=""width:240px; margin: auto;"">
                                <img src=""images/shifted_maps/map23_PuOr_scaleDef_orientDef_180_darkshift.png"" style= ""width:200px""alt=""img"">
                            </div>
                        </div>","82","","0","","","","images/shifted_maps/map23_PuOr_scaleDef_orientDef_180_darkshift.png","sad","1","23","23","PuOr","orientDef","scaleDef","180","darkshift","",""
"","","","","","html-slider-response","68","336007","0.0-64.0","r94oboy6jb","0","96955","NaN","<div style=""width:500px;"">
                            <p style=""font-size:50px; font-weight:bold;""
                            >sad</p>
                            <div style=""width:240px; margin: auto;"">
                                <img src=""images/shifted_maps/map13_magma_scaleRev_orientDef_090_lightshift.png"" style= ""width:200px""alt=""img"">
                            </div>
                        </div>","76","","0","","","","images/shifted_maps/map13_magma_scaleRev_orientDef_090_lightshift.png","sad","1","13","13","magma","orientDef","scaleRev","090","lightshift","",""
"","","","","","html-slider-response","69","338090","0.0-65.0","r94oboy6jb","0","96955","NaN","<div style=""width:500px;"">
                            <p style=""font-size:50px; font-weight:bold;""
                            >sad</p>
                            <div style=""width:240px; margin: auto;"">
                                <img src=""images/shifted_maps/map07_coolwarm_scaleDef_orientDef_180_darkshift.png"" style= ""width:200px""alt=""img"">
                            </div>
                        </div>","-22","","0","","","","images/shifted_maps/map07_coolwarm_scaleDef_orientDef_180_darkshift.png","sad","1","07","07","coolwarm","orientDef","scaleDef","180","darkshift","",""
"","","","","","html-slider-response","70","339955","0.0-66.0","r94oboy6jb","0","96955","NaN","<div style=""width:500px;"">
                            <p style=""font-size:50px; font-weight:bold;""
                            >sad</p>
                            <div style=""width:240px; margin: auto;"">
                                <img src=""images/shifted_maps/map26_berlin_scaleRev_orientDef_270_darkshift.png"" style= ""width:200px""alt=""img"">
                            </div>
                        </div>","37","","0","","","","images/shifted_maps/map26_berlin_scaleRev_orientDef_270_darkshift.png","sad","1","26","26","berlin","orientDef","scaleRev","270","darkshift","",""
"","","","","","html-slider-response","71","341723","0.0-67.0","r94oboy6jb","0","96955","NaN","<div style=""width:500px;"">
                            <p style=""font-size:50px; font-weight:bold;""
                            >sad</p>
                            <div style=""width:240px; margin: auto;"">
                                <img src=""images/shifted_maps/map05_Greys_scaleDef_orientDef_180_darkshift.png"" style= ""width:200px""alt=""img"">
                            </div>
                        </div>","100","","0","","","","images/shifted_maps/map05_Greys_scaleDef_orientDef_180_darkshift.png","sad","1","05","05","Greys","orientDef","scaleDef","180","darkshift","",""
"","","","","","html-slider-response","72","344572","0.0-68.0","r94oboy6jb","0","96955","NaN","<div style=""width:500px;"">
                            <p style=""font-size:50px; font-weight:bold;""
                            >sad</p>
                            <div style=""width:240px; margin: auto;"">
                                <img src=""images/shifted_maps/map02_Reds_scaleRev_orientDef_090_lightshift.png"" style= ""width:200px""alt=""img"">
                            </div>
                        </div>","-6","","0","","","","images/shifted_maps/map02_Reds_scaleRev_orientDef_090_lightshift.png","sad","1","02","02","Reds","orientDef","scaleRev","090","lightshift","",""
"","","","","","html-slider-response","73","347340","0.0-69.0","r94oboy6jb","0","96955","NaN","<div style=""width:500px;"">
                            <p style=""font-size:50px; font-weight:bold;""
                            >sad</p>
                            <div style=""width:240px; margin: auto;"">
                                <img src=""images/shifted_maps/map15_PRGn_scaleRev_orientDef_270_lightshift.png"" style= ""width:200px""alt=""img"">
                            </div>
                        </div>","-26","","0","","","","images/shifted_maps/map15_PRGn_scaleRev_orientDef_270_lightshift.png","sad","1","15","15","PRGn","orientDef","scaleRev","270","lightshift","",""
"","","","","","html-slider-response","74","349505","0.0-70.0","r94oboy6jb","0","96955","NaN","<div style=""width:500px;"">
                            <p style=""font-size:50px; font-weight:bold;""
                            >sad</p>
                            <div style=""width:240px; margin: auto;"">
                                <img src=""images/shifted_maps/map07_PuRd_scaleRev_orientDef_090_lightshift.png"" style= ""width:200px""alt=""img"">
                            </div>
                        </div>","-86","","0","","","","images/shifted_maps/map07_PuRd_scaleRev_orientDef_090_lightshift.png","sad","1","07","07","PuRd","orientDef","scaleRev","090","lightshift","",""
"","","","","","html-slider-response","75","351406","0.0-71.0","r94oboy6jb","0","96955","NaN","<div style=""width:500px;"">
                            <p style=""font-size:50px; font-weight:bold;""
                            >sad</p>
                            <div style=""width:240px; margin: auto;"">
                                <img src=""images/shifted_maps/map13_cividis_scaleDef_orientDef_180_lightshift.png"" style= ""width:200px""alt=""img"">
                            </div>
                        </div>","121","","0","","","","images/shifted_maps/map13_cividis_scaleDef_orientDef_180_lightshift.png","sad","1","13","13","cividis","orientDef","scaleDef","180","lightshift","",""
"","","","","","html-slider-response","76","353573","0.0-72.0","r94oboy6jb","0","96955","NaN","<div style=""width:500px;"">
                            <p style=""font-size:50px; font-weight:bold;""
                            >sad</p>
                            <div style=""width:240px; margin: auto;"">
                                <img src=""images/shifted_maps/map07_coolwarm_scaleDef_orientDef_180_lightshift.png"" style= ""width:200px""alt=""img"">
                            </div>
                        </div>","-54","","0","","","","images/shifted_maps/map07_coolwarm_scaleDef_orientDef_180_lightshift.png","sad","1","07","07","coolwarm","orientDef","scaleDef","180","lightshift","",""
"","","","","","html-slider-response","77","356473","0.0-73.0","r94oboy6jb","0","96955","NaN","<div style=""width:500px;"">
                            <p style=""font-size:50px; font-weight:bold;""
                            >sad</p>
                            <div style=""width:240px; margin: auto;"">
                                <img src=""images/shifted_maps/map02_PuBu_scaleDef_orientDef_180_lightshift.png"" style= ""width:200px""alt=""img"">
                            </div>
                        </div>","146","","0","","","","images/shifted_maps/map02_PuBu_scaleDef_orientDef_180_lightshift.png","sad","1","02","02","PuBu","orientDef","scaleDef","180","lightshift","",""
"","","","","","html-slider-response","78","361439","0.0-74.0","r94oboy6jb","0","96955","NaN","<div style=""width:500px;"">
                            <p style=""font-size:50px; font-weight:bold;""
                            >sad</p>
                            <div style=""width:240px; margin: auto;"">
                                <img src=""images/shifted_maps/map12_BrBG_scaleDef_orientDef_180_darkshift.png"" style= ""width:200px""alt=""img"">
                            </div>
                        </div>","25","","0","","","","images/shifted_maps/map12_BrBG_scaleDef_orientDef_180_darkshift.png","sad","1","12","12","BrBG","orientDef","scaleDef","180","darkshift","",""
"","","","","","html-slider-response","79","364123","0.0-75.0","r94oboy6jb","0","96955","NaN","<div style=""width:500px;"">
                            <p style=""font-size:50px; font-weight:bold;""
                            >sad</p>
                            <div style=""width:240px; margin: auto;"">
                                <img src=""images/shifted_maps/map15_YlOrBr_scaleDef_orientDef_000_lightshift.png"" style= ""width:200px""alt=""img"">
                            </div>
                        </div>","2","","0","","","","images/shifted_maps/map15_YlOrBr_scaleDef_orientDef_000_lightshift.png","sad","1","15","15","YlOrBr","orientDef","scaleDef","000","lightshift","",""
"","","","","","html-slider-response","80","365990","0.0-76.0","r94oboy6jb","0","96955","NaN","<div style=""width:500px;"">
                            <p style=""font-size:50px; font-weight:bold;""
                            >sad</p>
                            <div style=""width:240px; margin: auto;"">
                                <img src=""images/shifted_maps/map12_BrBG_scaleRev_orientDef_270_darkshift.png"" style= ""width:200px""alt=""img"">
                            </div>
                        </div>","69","","0","","","","images/shifted_maps/map12_BrBG_scaleRev_orientDef_270_darkshift.png","sad","1","12","12","BrBG","orientDef","scaleRev","270","darkshift","",""
"","","","","","html-slider-response","81","369123","0.0-77.0","r94oboy6jb","0","96955","NaN","<div style=""width:500px;"">
                            <p style=""font-size:50px; font-weight:bold;""
                            >sad</p>
                            <div style=""width:240px; margin: auto;"">
                                <img src=""images/shifted_maps/map15_PRGn_scaleRev_orientDef_270_darkshift.png"" style= ""width:200px""alt=""img"">
                            </div>
                        </div>","109","","0","","","","images/shifted_maps/map15_PRGn_scaleRev_orientDef_270_darkshift.png","sad","1","15","15","PRGn","orientDef","scaleRev","270","darkshift","",""
"","","","","","html-slider-response","82","370923","0.0-78.0","r94oboy6jb","0","96955","NaN","<div style=""width:500px;"">
                            <p style=""font-size:50px; font-weight:bold;""
                            >sad</p>
                            <div style=""width:240px; margin: auto;"">
                                <img src=""images/shifted_maps/map23_PuOr_scaleDef_orientDef_180_lightshift.png"" style= ""width:200px""alt=""img"">
                            </div>
                        </div>","55","","0","","","","images/shifted_maps/map23_PuOr_scaleDef_orientDef_180_lightshift.png","sad","1","23","23","PuOr","orientDef","scaleDef","180","lightshift","",""
"","","","","","html-slider-response","83","372823","0.0-79.0","r94oboy6jb","0","96955","NaN","<div style=""width:500px;"">
                            <p style=""font-size:50px; font-weight:bold;""
                            >sad</p>
                            <div style=""width:240px; margin: auto;"">
                                <img src=""images/shifted_maps/map15_PRGn_scaleDef_orientDef_180_darkshift.png"" style= ""width:200px""alt=""img"">
                            </div>
                        </div>","74","","0","","","","images/shifted_maps/map15_PRGn_scaleDef_orientDef_180_darkshift.png","sad","1","15","15","PRGn","orientDef","scaleDef","180","darkshift","",""
"","","","","","html-slider-response","84","374290","0.0-80.0","r94oboy6jb","0","96955","NaN","<div style=""width:500px;"">
                            <p style=""font-size:50px; font-weight:bold;""
                            >sad</p>
                            <div style=""width:240px; margin: auto;"">
                                <img src=""images/shifted_maps/map02_Reds_scaleDef_orientDef_000_lightshift.png"" style= ""width:200px""alt=""img"">
                            </div>
                        </div>","-47","","0","","","","images/shifted_maps/map02_Reds_scaleDef_orientDef_000_lightshift.png","sad","1","02","02","Reds","orientDef","scaleDef","000","lightshift","",""
"","","","","","html-slider-response","85","376238","0.0-81.0","r94oboy6jb","0","96955","NaN","<div style=""width:500px;"">
                            <p style=""font-size:50px; font-weight:bold;""
                            >sad</p>
                            <div style=""width:240px; margin: auto;"">
                                <img src=""images/shifted_maps/map02_Reds_scaleDef_orientDef_000_darkshift.png"" style= ""width:200px""alt=""img"">
                            </div>
                        </div>","-9","","0","","","","images/shifted_maps/map02_Reds_scaleDef_orientDef_000_darkshift.png","sad","1","02","02","Reds","orientDef","scaleDef","000","darkshift","",""
"","","","","","html-slider-response","86","377939","0.0-82.0","r94oboy6jb","0","96955","NaN","<div style=""width:500px;"">
                            <p style=""font-size:50px; font-weight:bold;""
                            >sad</p>
                            <div style=""width:240px; margin: auto;"">
                                <img src=""images/shifted_maps/map05_Greys_scaleRev_orientDef_270_lightshift.png"" style= ""width:200px""alt=""img"">
                            </div>
                        </div>","114","","0","","","","images/shifted_maps/map05_Greys_scaleRev_orientDef_270_lightshift.png","sad","1","05","05","Greys","orientDef","scaleRev","270","lightshift","",""
"","","","","","html-slider-response","87","379989","0.0-83.0","r94oboy6jb","0","96955","NaN","<div style=""width:500px;"">
                            <p style=""font-size:50px; font-weight:bold;""
                            >sad</p>
                            <div style=""width:240px; margin: auto;"">
                                <img src=""images/shifted_maps/map15_YlOrBr_scaleRev_orientDef_090_lightshift.png"" style= ""width:200px""alt=""img"">
                            </div>
                        </div>","-26","","0","","","","images/shifted_maps/map15_YlOrBr_scaleRev_orientDef_090_lightshift.png","sad","1","15","15","YlOrBr","orientDef","scaleRev","090","lightshift","",""
"","","","","","html-slider-response","88","381489","0.0-84.0","r94oboy6jb","0","96955","NaN","<div style=""width:500px;"">
                            <p style=""font-size:50px; font-weight:bold;""
                            >sad</p>
                            <div style=""width:240px; margin: auto;"">
                                <img src=""images/shifted_maps/map05_PiYG_scaleDef_orientDef_000_darkshift.png"" style= ""width:200px""alt=""img"">
                            </div>
                        </div>","-86","","0","","","","images/shifted_maps/map05_PiYG_scaleDef_orientDef_000_darkshift.png","sad","1","05","05","PiYG","orientDef","scaleDef","000","darkshift","",""
"","","","","","html-slider-response","89","384207","0.0-85.0","r94oboy6jb","0","96955","NaN","<div style=""width:500px;"">
                            <p style=""font-size:50px; font-weight:bold;""
                            >sad</p>
                            <div style=""width:240px; margin: auto;"">
                                <img src=""images/shifted_maps/map10_RdGy_scaleDef_orientDef_180_lightshift.png"" style= ""width:200px""alt=""img"">
                            </div>
                        </div>","22","","0","","","","images/shifted_maps/map10_RdGy_scaleDef_orientDef_180_lightshift.png","sad","1","10","10","RdGy","orientDef","scaleDef","180","lightshift","",""
"","","","","","html-slider-response","90","386256","0.0-86.0","r94oboy6jb","0","96955","NaN","<div style=""width:500px;"">
                            <p style=""font-size:50px; font-weight:bold;""
                            >sad</p>
                            <div style=""width:240px; margin: auto;"">
                                <img src=""images/shifted_maps/map23_RdYlGn_scaleDef_orientDef_000_darkshift.png"" style= ""width:200px""alt=""img"">
                            </div>
                        </div>","-14","","0","","","","images/shifted_maps/map23_RdYlGn_scaleDef_orientDef_000_darkshift.png","sad","1","23","23","RdYlGn","orientDef","scaleDef","000","darkshift","",""
"","","","","","html-slider-response","91","387806","0.0-87.0","r94oboy6jb","0","96955","NaN","<div style=""width:500px;"">
                            <p style=""font-size:50px; font-weight:bold;""
                            >sad</p>
                            <div style=""width:240px; margin: auto;"">
                                <img src=""images/shifted_maps/map15_PRGn_scaleDef_orientDef_180_lightshift.png"" style= ""width:200px""alt=""img"">
                            </div>
                        </div>","-25","","0","","","","images/shifted_maps/map15_PRGn_scaleDef_orientDef_180_lightshift.png","sad","1","15","15","PRGn","orientDef","scaleDef","180","lightshift","",""
"","","","","","html-slider-response","92","389156","0.0-88.0","r94oboy6jb","0","96955","NaN","<div style=""width:500px;"">
                            <p style=""font-size:50px; font-weight:bold;""
                            >sad</p>
                            <div style=""width:240px; margin: auto;"">
                                <img src=""images/shifted_maps/map15_YlOrBr_scaleRev_orientDef_090_darkshift.png"" style= ""width:200px""alt=""img"">
                            </div>
                        </div>","-42","","0","","","","images/shifted_maps/map15_YlOrBr_scaleRev_orientDef_090_darkshift.png","sad","1","15","15","YlOrBr","orientDef","scaleRev","090","darkshift","",""
"","","","","","html-slider-response","93","391421","0.0-89.0","r94oboy6jb","0","96955","NaN","<div style=""width:500px;"">
                            <p style=""font-size:50px; font-weight:bold;""
                            >sad</p>
                            <div style=""width:240px; margin: auto;"">
                                <img src=""images/shifted_maps/map13_magma_scaleRev_orientDef_090_darkshift.png"" style= ""width:200px""alt=""img"">
                            </div>
                        </div>","164","","0","","","","images/shifted_maps/map13_magma_scaleRev_orientDef_090_darkshift.png","sad","1","13","13","magma","orientDef","scaleRev","090","darkshift","",""
"","","","","","html-slider-response","94","393505","0.0-90.0","r94oboy6jb","0","96955","NaN","<div style=""width:500px;"">
                            <p style=""font-size:50px; font-weight:bold;""
                            >sad</p>
                            <div style=""width:240px; margin: auto;"">
                                <img src=""images/shifted_maps/map26_BuGn_scaleDef_orientDef_000_darkshift.png"" style= ""width:200px""alt=""img"">
                            </div>
                        </div>","-13","","0","","","","images/shifted_maps/map26_BuGn_scaleDef_orientDef_000_darkshift.png","sad","1","26","26","BuGn","orientDef","scaleDef","000","darkshift","",""
"","","","","","html-slider-response","95","396388","0.0-91.0","r94oboy6jb","0","96955","NaN","<div style=""width:500px;"">
                            <p style=""font-size:50px; font-weight:bold;""
                            >sad</p>
                            <div style=""width:240px; margin: auto;"">
                                <img src=""images/shifted_maps/map12_BuPu_scaleDef_orientDef_000_lightshift.png"" style= ""width:200px""alt=""img"">
                            </div>
                        </div>","-22","","0","","","","images/shifted_maps/map12_BuPu_scaleDef_orientDef_000_lightshift.png","sad","1","12","12","BuPu","orientDef","scaleDef","000","lightshift","",""
"","","","","","html-slider-response","96","397823","0.0-92.0","r94oboy6jb","0","96955","NaN","<div style=""width:500px;"">
                            <p style=""font-size:50px; font-weight:bold;""
                            >sad</p>
                            <div style=""width:240px; margin: auto;"">
                                <img src=""images/shifted_maps/map26_BuGn_scaleRev_orientDef_090_lightshift.png"" style= ""width:200px""alt=""img"">
                            </div>
                        </div>","-22","","0","","","","images/shifted_maps/map26_BuGn_scaleRev_orientDef_090_lightshift.png","sad","1","26","26","BuGn","orientDef","scaleRev","090","lightshift","",""
"","","","","","html-slider-response","97","402506","0.0-93.0","r94oboy6jb","0","96955","NaN","<div style=""width:500px;"">
                            <p style=""font-size:50px; font-weight:bold;""
                            >sad</p>
                            <div style=""width:240px; margin: auto;"">
                                <img src=""images/shifted_maps/map27_turbo_scaleDef_orientDef_180_darkshift.png"" style= ""width:200px""alt=""img"">
                            </div>
                        </div>","-24","","0","","","","images/shifted_maps/map27_turbo_scaleDef_orientDef_180_darkshift.png","sad","1","27","27","turbo","orientDef","scaleDef","180","darkshift","",""
"","","","","","html-slider-response","98","404623","0.0-94.0","r94oboy6jb","0","96955","NaN","<div style=""width:500px;"">
                            <p style=""font-size:50px; font-weight:bold;""
                            >sad</p>
                            <div style=""width:240px; margin: auto;"">
                                <img src=""images/shifted_maps/map27_managua_scaleRev_orientDef_090_lightshift.png"" style= ""width:200px""alt=""img"">
                            </div>
                        </div>","-62","","0","","","","images/shifted_maps/map27_managua_scaleRev_orientDef_090_lightshift.png","sad","1","27","27","managua","orientDef","scaleRev","090","lightshift","",""
"","","","","","html-button-response","99","408628","0.0-95.0","r94oboy6jb","0","96955","3502","<p>Great Job! You've finished block 1.<br></br> You have 4 block(s) left to go.<br></br></p>","0","","","","","","","","","","","","","","","","",""
"","","","","","html-button-response","100","410328","0.0-96.0","r94oboy6jb","0","96955","1699","<p>In this block of trials, you will be asked to rate how much you associate each map with:</p > <p style = 'font-size:150%; font-weight: bold'>fearful</p><br></br>","0","","","","","","","","","","","","","","","","",""
"","","","","","html-slider-response","101","411422","0.0-97.0","r94oboy6jb","0","96955","NaN","<div style=""width:500px;"">
                            <p style=""font-size:50px; font-weight:bold;""
                            >fearful</p>
                            <div style=""width:240px; margin: auto;"">
                                <img src=""images/shifted_maps/map15_PRGn_scaleDef_orientDef_180_lightshift.png"" style= ""width:200px""alt=""img"">
                            </div>
                        </div>","-42","","0","","","","images/shifted_maps/map15_PRGn_scaleDef_orientDef_180_lightshift.png","fearful","1","15","15","PRGn","orientDef","scaleDef","180","lightshift","",""
"","","","","","html-slider-response","102","413789","0.0-98.0","r94oboy6jb","0","96955","NaN","<div style=""width:500px;"">
                            <p style=""font-size:50px; font-weight:bold;""
                            >fearful</p>
                            <div style=""width:240px; margin: auto;"">
                                <img src=""images/shifted_maps/map02_PuBu_scaleRev_orientDef_270_lightshift.png"" style= ""width:200px""alt=""img"">
                            </div>
                        </div>","-42","","0","","","","images/shifted_maps/map02_PuBu_scaleRev_orientDef_270_lightshift.png","fearful","1","02","02","PuBu","orientDef","scaleRev","270","lightshift","",""
"","","","","","html-slider-response","103","415523","0.0-99.0","r94oboy6jb","0","96955","NaN","<div style=""width:500px;"">
                            <p style=""font-size:50px; font-weight:bold;""
                            >fearful</p>
                            <div style=""width:240px; margin: auto;"">
                                <img src=""images/shifted_maps/map10_RdGy_scaleRev_orientDef_270_darkshift.png"" style= ""width:200px""alt=""img"">
                            </div>
                        </div>","87","","0","","","","images/shifted_maps/map10_RdGy_scaleRev_orientDef_270_darkshift.png","fearful","1","10","10","RdGy","orientDef","scaleRev","270","darkshift","",""
"","","","","","html-slider-response","104","417006","0.0-100.0","r94oboy6jb","0","96955","NaN","<div style=""width:500px;"">
                            <p style=""font-size:50px; font-weight:bold;""
                            >fearful</p>
                            <div style=""width:240px; margin: auto;"">
                                <img src=""images/shifted_maps/map26_BuGn_scaleRev_orientDef_090_lightshift.png"" style= ""width:200px""alt=""img"">
                            </div>
                        </div>","-148","","0","","","","images/shifted_maps/map26_BuGn_scaleRev_orientDef_090_lightshift.png","fearful","1","26","26","BuGn","orientDef","scaleRev","090","lightshift","",""
"","","","","","html-slider-response","105","418422","0.0-101.0","r94oboy6jb","0","96955","NaN","<div style=""width:500px;"">
                            <p style=""font-size:50px; font-weight:bold;""
                            >fearful</p>
                            <div style=""width:240px; margin: auto;"">
                                <img src=""images/shifted_maps/map15_PRGn_scaleRev_orientDef_270_darkshift.png"" style= ""width:200px""alt=""img"">
                            </div>
                        </div>","-162","","0","","","","images/shifted_maps/map15_PRGn_scaleRev_orientDef_270_darkshift.png","fearful","1","15","15","PRGn","orientDef","scaleRev","270","darkshift","",""
"","","","","","html-slider-response","106","420089","0.0-102.0","r94oboy6jb","0","96955","NaN","<div style=""width:500px;"">
                            <p style=""font-size:50px; font-weight:bold;""
                            >fearful</p>
                            <div style=""width:240px; margin: auto;"">
                                <img src=""images/shifted_maps/map13_cividis_scaleDef_orientDef_180_lightshift.png"" style= ""width:200px""alt=""img"">
                            </div>
                        </div>","112","","0","","","","images/shifted_maps/map13_cividis_scaleDef_orientDef_180_lightshift.png","fearful","1","13","13","cividis","orientDef","scaleDef","180","lightshift","",""
"","","","","","html-slider-response","107","421490","0.0-103.0","r94oboy6jb","0","96955","NaN","<div style=""width:500px;"">
                            <p style=""font-size:50px; font-weight:bold;""
                            >fearful</p>
                            <div style=""width:240px; margin: auto;"">
                                <img src=""images/shifted_maps/map27_managua_scaleDef_orientDef_000_lightshift.png"" style= ""width:200px""alt=""img"">
                            </div>
                        </div>","-71","","0","","","","images/shifted_maps/map27_managua_scaleDef_orientDef_000_lightshift.png","fearful","1","27","27","managua","orientDef","scaleDef","000","lightshift","",""
"","","","","","html-slider-response","108","422739","0.0-104.0","r94oboy6jb","0","96955","NaN","<div style=""width:500px;"">
                            <p style=""font-size:50px; font-weight:bold;""
                            >fearful</p>
                            <div style=""width:240px; margin: auto;"">
                                <img src=""images/shifted_maps/map23_PuOr_scaleDef_orientDef_180_lightshift.png"" style= ""width:200px""alt=""img"">
                            </div>
                        </div>","-92","","0","","","","images/shifted_maps/map23_PuOr_scaleDef_orientDef_180_lightshift.png","fearful","1","23","23","PuOr","orientDef","scaleDef","180","lightshift","",""
"","","","","","html-slider-response","109","424172","0.0-105.0","r94oboy6jb","0","96955","NaN","<div style=""width:500px;"">
                            <p style=""font-size:50px; font-weight:bold;""
                            >fearful</p>
                            <div style=""width:240px; margin: auto;"">
                                <img src=""images/shifted_maps/map23_RdYlGn_scaleDef_orientDef_000_lightshift.png"" style= ""width:200px""alt=""img"">
                            </div>
                        </div>","-138","","0","","","","images/shifted_maps/map23_RdYlGn_scaleDef_orientDef_000_lightshift.png","fearful","1","23","23","RdYlGn","orientDef","scaleDef","000","lightshift","",""
"","","","","","html-slider-response","110","426422","0.0-106.0","r94oboy6jb","0","96955","NaN","<div style=""width:500px;"">
                            <p style=""font-size:50px; font-weight:bold;""
                            >fearful</p>
                            <div style=""width:240px; margin: auto;"">
                                <img src=""images/shifted_maps/map27_turbo_scaleDef_orientDef_180_darkshift.png"" style= ""width:200px""alt=""img"">
                            </div>
                        </div>","-6","","0","","","","images/shifted_maps/map27_turbo_scaleDef_orientDef_180_darkshift.png","fearful","1","27","27","turbo","orientDef","scaleDef","180","darkshift","",""
"","","","","","html-slider-response","111","428522","0.0-107.0","r94oboy6jb","0","96955","NaN","<div style=""width:500px;"">
                            <p style=""font-size:50px; font-weight:bold;""
                            >fearful</p>
                            <div style=""width:240px; margin: auto;"">
                                <img src=""images/shifted_maps/map07_PuRd_scaleDef_orientDef_000_darkshift.png"" style= ""width:200px""alt=""img"">
                            </div>
                        </div>","-6","","0","","","","images/shifted_maps/map07_PuRd_scaleDef_orientDef_000_darkshift.png","fearful","1","07","07","PuRd","orientDef","scaleDef","000","darkshift","",""
"","","","","","html-slider-response","112","430356","0.0-108.0","r94oboy6jb","0","96955","NaN","<div style=""width:500px;"">
                            <p style=""font-size:50px; font-weight:bold;""
                            >fearful</p>
                            <div style=""width:240px; margin: auto;"">
                                <img src=""images/shifted_maps/map12_BuPu_scaleDef_orientDef_000_darkshift.png"" style= ""width:200px""alt=""img"">
                            </div>
                        </div>","110","","0","","","","images/shifted_maps/map12_BuPu_scaleDef_orientDef_000_darkshift.png","fearful","1","12","12","BuPu","orientDef","scaleDef","000","darkshift","",""
"","","","","","html-slider-response","113","432588","0.0-109.0","r94oboy6jb","0","96955","NaN","<div style=""width:500px;"">
                            <p style=""font-size:50px; font-weight:bold;""
                            >fearful</p>
                            <div style=""width:240px; margin: auto;"">
                                <img src=""images/shifted_maps/map10_vanimo_scaleDef_orientDef_000_darkshift.png"" style= ""width:200px""alt=""img"">
                            </div>
                        </div>","-17","","0","","","","images/shifted_maps/map10_vanimo_scaleDef_orientDef_000_darkshift.png","fearful","1","10","10","vanimo","orientDef","scaleDef","000","darkshift","",""
"","","","","","html-slider-response","114","434605","0.0-110.0","r94oboy6jb","0","96955","NaN","<div style=""width:500px;"">
                            <p style=""font-size:50px; font-weight:bold;""
                            >fearful</p>
                            <div style=""width:240px; margin: auto;"">
                                <img src=""images/shifted_maps/map02_PuBu_scaleDef_orientDef_180_darkshift.png"" style= ""width:200px""alt=""img"">
                            </div>
                        </div>","-37","","0","","","","images/shifted_maps/map02_PuBu_scaleDef_orientDef_180_darkshift.png","fearful","1","02","02","PuBu","orientDef","scaleDef","180","darkshift","",""
"","","","","","html-slider-response","115","436489","0.0-111.0","r94oboy6jb","0","96955","NaN","<div style=""width:500px;"">
                            <p style=""font-size:50px; font-weight:bold;""
                            >fearful</p>
                            <div style=""width:240px; margin: auto;"">
                                <img src=""images/shifted_maps/map23_PuOr_scaleDef_orientDef_180_darkshift.png"" style= ""width:200px""alt=""img"">
                            </div>
                        </div>","180","","0","","","","images/shifted_maps/map23_PuOr_scaleDef_orientDef_180_darkshift.png","fearful","1","23","23","PuOr","orientDef","scaleDef","180","darkshift","",""
"","","","","","html-slider-response","116","439105","0.0-112.0","r94oboy6jb","0","96955","NaN","<div style=""width:500px;"">
                            <p style=""font-size:50px; font-weight:bold;""
                            >fearful</p>
                            <div style=""width:240px; margin: auto;"">
                                <img src=""images/shifted_maps/map26_BuGn_scaleDef_orientDef_000_lightshift.png"" style= ""width:200px""alt=""img"">
                            </div>
                        </div>","-178","","0","","","","images/shifted_maps/map26_BuGn_scaleDef_orientDef_000_lightshift.png","fearful","1","26","26","BuGn","orientDef","scaleDef","000","lightshift","",""
"","","","","","html-slider-response","117","442172","0.0-113.0","r94oboy6jb","0","96955","NaN","<div style=""width:500px;"">
                            <p style=""font-size:50px; font-weight:bold;""
                            >fearful</p>
                            <div style=""width:240px; margin: auto;"">
                                <img src=""images/shifted_maps/map26_berlin_scaleRev_orientDef_270_lightshift.png"" style= ""width:200px""alt=""img"">
                            </div>
                        </div>","-10","","0","","","","images/shifted_maps/map26_berlin_scaleRev_orientDef_270_lightshift.png","fearful","1","26","26","berlin","orientDef","scaleRev","270","lightshift","",""
"","","","","","html-slider-response","118","444872","0.0-114.0","r94oboy6jb","0","96955","NaN","<div style=""width:500px;"">
                            <p style=""font-size:50px; font-weight:bold;""
                            >fearful</p>
                            <div style=""width:240px; margin: auto;"">
                                <img src=""images/shifted_maps/map02_Reds_scaleDef_orientDef_000_darkshift.png"" style= ""width:200px""alt=""img"">
                            </div>
                        </div>","165","","0","","","","images/shifted_maps/map02_Reds_scaleDef_orientDef_000_darkshift.png","fearful","1","02","02","Reds","orientDef","scaleDef","000","darkshift","",""
"","","","","","html-slider-response","119","446922","0.0-115.0","r94oboy6jb","0","96955","NaN","<div style=""width:500px;"">
                            <p style=""font-size:50px; font-weight:bold;""
                            >fearful</p>
                            <div style=""width:240px; margin: auto;"">
                                <img src=""images/shifted_maps/map26_berlin_scaleDef_orientDef_180_darkshift.png"" style= ""width:200px""alt=""img"">
                            </div>
                        </div>","22","","0","","","","images/shifted_maps/map26_berlin_scaleDef_orientDef_180_darkshift.png","fearful","1","26","26","berlin","orientDef","scaleDef","180","darkshift","",""
"","","","","","html-slider-response","120","450088","0.0-116.0","r94oboy6jb","0","96955","NaN","<div style=""width:500px;"">
                            <p style=""font-size:50px; font-weight:bold;""
                            >fearful</p>
                            <div style=""width:240px; margin: auto;"">
                                <img src=""images/shifted_maps/map26_berlin_scaleRev_orientDef_270_darkshift.png"" style= ""width:200px""alt=""img"">
                            </div>
                        </div>","134","","0","","","","images/shifted_maps/map26_berlin_scaleRev_orientDef_270_darkshift.png","fearful","1","26","26","berlin","orientDef","scaleRev","270","darkshift","",""
"","","","","","html-slider-response","121","452721","0.0-117.0","r94oboy6jb","0","96955","NaN","<div style=""width:500px;"">
                            <p style=""font-size:50px; font-weight:bold;""
                            >fearful</p>
                            <div style=""width:240px; margin: auto;"">
                                <img src=""images/shifted_maps/map12_BuPu_scaleRev_orientDef_090_darkshift.png"" style= ""width:200px""alt=""img"">
                            </div>
                        </div>","-8","","0","","","","images/shifted_maps/map12_BuPu_scaleRev_orientDef_090_darkshift.png","fearful","1","12","12","BuPu","orientDef","scaleRev","090","darkshift","",""
"","","","","","html-slider-response","122","454371","0.0-118.0","r94oboy6jb","0","96955","NaN","<div style=""width:500px;"">
                            <p style=""font-size:50px; font-weight:bold;""
                            >fearful</p>
                            <div style=""width:240px; margin: auto;"">
                                <img src=""images/shifted_maps/map13_cividis_scaleRev_orientDef_270_darkshift.png"" style= ""width:200px""alt=""img"">
                            </div>
                        </div>","150","","0","","","","images/shifted_maps/map13_cividis_scaleRev_orientDef_270_darkshift.png","fearful","1","13","13","cividis","orientDef","scaleRev","270","darkshift","",""
"","","","","","html-slider-response","123","456005","0.0-119.0","r94oboy6jb","0","96955","NaN","<div style=""width:500px;"">
                            <p style=""font-size:50px; font-weight:bold;""
                            >fearful</p>
                            <div style=""width:240px; margin: auto;"">
                                <img src=""images/shifted_maps/map15_PRGn_scaleRev_orientDef_270_lightshift.png"" style= ""width:200px""alt=""img"">
                            </div>
                        </div>","-33","","0","","","","images/shifted_maps/map15_PRGn_scaleRev_orientDef_270_lightshift.png","fearful","1","15","15","PRGn","orientDef","scaleRev","270","lightshift","",""
"","","","","","html-slider-response","124","457855","0.0-120.0","r94oboy6jb","0","96955","NaN","<div style=""width:500px;"">
                            <p style=""font-size:50px; font-weight:bold;""
                            >fearful</p>
                            <div style=""width:240px; margin: auto;"">
                                <img src=""images/shifted_maps/map15_YlOrBr_scaleRev_orientDef_090_lightshift.png"" style= ""width:200px""alt=""img"">
                            </div>
                        </div>","18","","0","","","","images/shifted_maps/map15_YlOrBr_scaleRev_orientDef_090_lightshift.png","fearful","1","15","15","YlOrBr","orientDef","scaleRev","090","lightshift","",""
"","","","","","html-slider-response","125","459689","0.0-121.0","r94oboy6jb","0","96955","NaN","<div style=""width:500px;"">
                            <p style=""font-size:50px; font-weight:bold;""
                            >fearful</p>
                            <div style=""width:240px; margin: auto;"">
                                <img src=""images/shifted_maps/map15_YlOrBr_scaleRev_orientDef_090_darkshift.png"" style= ""width:200px""alt=""img"">
                            </div>
                        </div>","-158","","0","","","","images/shifted_maps/map15_YlOrBr_scaleRev_orientDef_090_darkshift.png","fearful","1","15","15","YlOrBr","orientDef","scaleRev","090","darkshift","",""
"","","","","","html-slider-response","126","461422","0.0-122.0","r94oboy6jb","0","96955","NaN","<div style=""width:500px;"">
                            <p style=""font-size:50px; font-weight:bold;""
                            >fearful</p>
                            <div style=""width:240px; margin: auto;"">
                                <img src=""images/shifted_maps/map05_Greys_scaleDef_orientDef_180_darkshift.png"" style= ""width:200px""alt=""img"">
                            </div>
                        </div>","194","","0","","","","images/shifted_maps/map05_Greys_scaleDef_orientDef_180_darkshift.png","fearful","1","05","05","Greys","orientDef","scaleDef","180","darkshift","",""
"","","","","","html-slider-response","127","463971","0.0-123.0","r94oboy6jb","0","96955","NaN","<div style=""width:500px;"">
                            <p style=""font-size:50px; font-weight:bold;""
                            >fearful</p>
                            <div style=""width:240px; margin: auto;"">
                                <img src=""images/shifted_maps/map10_RdGy_scaleDef_orientDef_180_lightshift.png"" style= ""width:200px""alt=""img"">
                            </div>
                        </div>","-11","","0","","","","images/shifted_maps/map10_RdGy_scaleDef_orientDef_180_lightshift.png","fearful","1","10","10","RdGy","orientDef","scaleDef","180","lightshift","",""
"","","","","","html-slider-response","128","465938","0.0-124.0","r94oboy6jb","0","96955","NaN","<div style=""width:500px;"">
                            <p style=""font-size:50px; font-weight:bold;""
                            >fearful</p>
                            <div style=""width:240px; margin: auto;"">
                                <img src=""images/shifted_maps/map10_vanimo_scaleRev_orientDef_090_lightshift.png"" style= ""width:200px""alt=""img"">
                            </div>
                        </div>","-82","","0","","","","images/shifted_maps/map10_vanimo_scaleRev_orientDef_090_lightshift.png","fearful","1","10","10","vanimo","orientDef","scaleRev","090","lightshift","",""
"","","","","","html-slider-response","129","469273","0.0-125.0","r94oboy6jb","0","96955","NaN","<div style=""width:500px;"">
                            <p style=""font-size:50px; font-weight:bold;""
                            >fearful</p>
                            <div style=""width:240px; margin: auto;"">
                                <img src=""images/shifted_maps/map26_BuGn_scaleRev_orientDef_090_darkshift.png"" style= ""width:200px""alt=""img"">
                            </div>
                        </div>","18","","0","","","","images/shifted_maps/map26_BuGn_scaleRev_orientDef_090_darkshift.png","fearful","1","26","26","BuGn","orientDef","scaleRev","090","darkshift","",""
"","","","","","html-slider-response","130","471939","0.0-126.0","r94oboy6jb","0","96955","NaN","<div style=""width:500px;"">
                            <p style=""font-size:50px; font-weight:bold;""
                            >fearful</p>
                            <div style=""width:240px; margin: auto;"">
                                <img src=""images/shifted_maps/map13_magma_scaleDef_orientDef_000_lightshift.png"" style= ""width:200px""alt=""img"">
                            </div>
                        </div>","188","","0","","","","images/shifted_maps/map13_magma_scaleDef_orientDef_000_lightshift.png","fearful","1","13","13","magma","orientDef","scaleDef","000","lightshift","",""
"","","","","","html-slider-response","131","479071","0.0-127.0","r94oboy6jb","0","96955","NaN","<div style=""width:500px;"">
                            <p style=""font-size:50px; font-weight:bold;""
                            >fearful</p>
                            <div style=""width:240px; margin: auto;"">
                                <img src=""images/shifted_maps/map12_BuPu_scaleDef_orientDef_000_lightshift.png"" style= ""width:200px""alt=""img"">
                            </div>
                        </div>","-11","","0","","","","images/shifted_maps/map12_BuPu_scaleDef_orientDef_000_lightshift.png","fearful","1","12","12","BuPu","orientDef","scaleDef","000","lightshift","",""
"","","","","","html-slider-response","132","480721","0.0-128.0","r94oboy6jb","0","96955","NaN","<div style=""width:500px;"">
                            <p style=""font-size:50px; font-weight:bold;""
                            >fearful</p>
                            <div style=""width:240px; margin: auto;"">
                                <img src=""images/shifted_maps/map13_magma_scaleRev_orientDef_090_lightshift.png"" style= ""width:200px""alt=""img"">
                            </div>
                        </div>","-35","","0","","","","images/shifted_maps/map13_magma_scaleRev_orientDef_090_lightshift.png","fearful","1","13","13","magma","orientDef","scaleRev","090","lightshift","",""
"","","","","","html-slider-response","133","483821","0.0-129.0","r94oboy6jb","0","96955","NaN","<div style=""width:500px;"">
                            <p style=""font-size:50px; font-weight:bold;""
                            >fearful</p>
                            <div style=""width:240px; margin: auto;"">
                                <img src=""images/shifted_maps/map23_RdYlGn_scaleRev_orientDef_090_darkshift.png"" style= ""width:200px""alt=""img"">
                            </div>
                        </div>","-75","","0","","","","images/shifted_maps/map23_RdYlGn_scaleRev_orientDef_090_darkshift.png","fearful","1","23","23","RdYlGn","orientDef","scaleRev","090","darkshift","",""
"","","","","","html-slider-response","134","485488","0.0-130.0","r94oboy6jb","0","96955","NaN","<div style=""width:500px;"">
                            <p style=""font-size:50px; font-weight:bold;""
                            >fearful</p>
                            <div style=""width:240px; margin: auto;"">
                                <img src=""images/shifted_maps/map02_Reds_scaleDef_orientDef_000_lightshift.png"" style= ""width:200px""alt=""img"">
                            </div>
                        </div>","36","","0","","","","images/shifted_maps/map02_Reds_scaleDef_orientDef_000_lightshift.png","fearful","1","02","02","Reds","orientDef","scaleDef","000","lightshift","",""
"","","","","","html-slider-response","135","487154","0.0-131.0","r94oboy6jb","0","96955","NaN","<div style=""width:500px;"">
                            <p style=""font-size:50px; font-weight:bold;""
                            >fearful</p>
                            <div style=""width:240px; margin: auto;"">
                                <img src=""images/shifted_maps/map12_BuPu_scaleRev_orientDef_090_lightshift.png"" style= ""width:200px""alt=""img"">
                            </div>
                        </div>","132","","0","","","","images/shifted_maps/map12_BuPu_scaleRev_orientDef_090_lightshift.png","fearful","1","12","12","BuPu","orientDef","scaleRev","090","lightshift","",""
"","","","","","html-slider-response","136","488672","0.0-132.0","r94oboy6jb","0","96955","NaN","<div style=""width:500px;"">
                            <p style=""font-size:50px; font-weight:bold;""
                            >fearful</p>
                            <div style=""width:240px; margin: auto;"">
                                <img src=""images/shifted_maps/map27_managua_scaleRev_orientDef_090_lightshift.png"" style= ""width:200px""alt=""img"">
                            </div>
                        </div>","59","","0","","","","images/shifted_maps/map27_managua_scaleRev_orientDef_090_lightshift.png","fearful","1","27","27","managua","orientDef","scaleRev","090","lightshift","",""
"","","","","","html-slider-response","137","490121","0.0-133.0","r94oboy6jb","0","96955","NaN","<div style=""width:500px;"">
                            <p style=""font-size:50px; font-weight:bold;""
                            >fearful</p>
                            <div style=""width:240px; margin: auto;"">
                                <img src=""images/shifted_maps/map27_turbo_scaleDef_orientDef_180_lightshift.png"" style= ""width:200px""alt=""img"">
                            </div>
                        </div>","-60","","0","","","","images/shifted_maps/map27_turbo_scaleDef_orientDef_180_lightshift.png","fearful","1","27","27","turbo","orientDef","scaleDef","180","lightshift","",""
"","","","","","html-slider-response","138","492105","0.0-134.0","r94oboy6jb","0","96955","NaN","<div style=""width:500px;"">
                            <p style=""font-size:50px; font-weight:bold;""
                            >fearful</p>
                            <div style=""width:240px; margin: auto;"">
                                <img src=""images/shifted_maps/map07_coolwarm_scaleRev_orientDef_270_lightshift.png"" style= ""width:200px""alt=""img"">
                            </div>
                        </div>","-99","","0","","","","images/shifted_maps/map07_coolwarm_scaleRev_orientDef_270_lightshift.png","fearful","1","07","07","coolwarm","orientDef","scaleRev","270","lightshift","",""
"","","","","","html-slider-response","139","493587","0.0-135.0","r94oboy6jb","0","96955","NaN","<div style=""width:500px;"">
                            <p style=""font-size:50px; font-weight:bold;""
                            >fearful</p>
                            <div style=""width:240px; margin: auto;"">
                                <img src=""images/shifted_maps/map05_PiYG_scaleRev_orientDef_090_darkshift.png"" style= ""width:200px""alt=""img"">
                            </div>
                        </div>","-130","","0","","","","images/shifted_maps/map05_PiYG_scaleRev_orientDef_090_darkshift.png","fearful","1","05","05","PiYG","orientDef","scaleRev","090","darkshift","",""
"","","","","","html-slider-response","140","495337","0.0-136.0","r94oboy6jb","0","96955","NaN","<div style=""width:500px;"">
                            <p style=""font-size:50px; font-weight:bold;""
                            >fearful</p>
                            <div style=""width:240px; margin: auto;"">
                                <img src=""images/shifted_maps/map10_vanimo_scaleRev_orientDef_090_darkshift.png"" style= ""width:200px""alt=""img"">
                            </div>
                        </div>","99","","0","","","","images/shifted_maps/map10_vanimo_scaleRev_orientDef_090_darkshift.png","fearful","1","10","10","vanimo","orientDef","scaleRev","090","darkshift","",""
"","","","","","html-button-response","141","498127","0.0-137.0","r94oboy6jb","0","96955","2287","<p>You are doing great!<br></br> You are halway done with the current block. When you are ready to continue, click the 'Continue' button.</p>","0","","","","","","","","","","","","","","","","",""
"","","","","","html-slider-response","142","499355","0.0-138.0","r94oboy6jb","0","96955","NaN","<div style=""width:500px;"">
                            <p style=""font-size:50px; font-weight:bold;""
                            >fearful</p>
                            <div style=""width:240px; margin: auto;"">
                                <img src=""images/shifted_maps/map23_PuOr_scaleRev_orientDef_270_lightshift.png"" style= ""width:200px""alt=""img"">
                            </div>
                        </div>","137","","0","","","","images/shifted_maps/map23_PuOr_scaleRev_orientDef_270_lightshift.png","fearful","1","23","23","PuOr","orientDef","scaleRev","270","lightshift","",""
"","","","","","html-slider-response","143","500871","0.0-139.0","r94oboy6jb","0","96955","NaN","<div style=""width:500px;"">
                            <p style=""font-size:50px; font-weight:bold;""
                            >fearful</p>
                            <div style=""width:240px; margin: auto;"">
                                <img src=""images/shifted_maps/map07_coolwarm_scaleDef_orientDef_180_darkshift.png"" style= ""width:200px""alt=""img"">
                            </div>
                        </div>","-46","","0","","","","images/shifted_maps/map07_coolwarm_scaleDef_orientDef_180_darkshift.png","fearful","1","07","07","coolwarm","orientDef","scaleDef","180","darkshift","",""
